time,acc_x,acc_y,acc_z
0.000000000000000000e+00,-3.167805562010907461e-01,-2.542447114855763135e-01,-1.549745308062278892e-01
1.000000000000000021e-03,-3.429682796972013392e-01,-2.422673590178234249e-01,-1.608928589875494586e-01
2.000000000000000042e-03,-3.310021419592823477e-01,-2.320312398429353051e-01,-1.725297809278655281e-01
3.000000000000000062e-03,-3.204004938815582237e-01,-2.087257891139569499e-01,-1.940340474766795165e-01
4.000000000000000083e-03,-3.261528513961841069e-01,-2.089920664818800400e-01,-1.999945257062268889e-01
5.000000000000000104e-03,-3.046455609342990090e-01,-1.666515666590780709e-01,-1.811018875195527789e-01
6.000000000000000125e-03,-2.893899007186442884e-01,-1.561710636341352709e-01,-1.988480165635909402e-01
7.000000000000000146e-03,-2.799056132716416512e-01,-1.208765363832680073e-01,-1.968595966507744599e-01
8.000000000000000167e-03,-2.493277755702870691e-01,-1.009942076373169378e-01,-2.157330793000305502e-01
8.999999999999999320e-03,-2.111874056988007342e-01,-7.482282760505208630e-02,-1.850102252163294547e-01
1.000000000000000021e-02,-1.862572870407490089e-01,-3.436183069788444761e-02,-1.896709021897553527e-01
1.099999999999999936e-02,-1.759630938143231238e-01,-1.891985085023292421e-02,-1.737502778782363533e-01
1.200000000000000025e-02,-1.288588534922796569e-01,1.963587341758010751e-02,-1.628636231414841984e-01
1.299999999999999940e-02,-1.153534249278365675e-01,6.641761491639737447e-02,-1.271134976759637492e-01
1.400000000000000029e-02,-4.659080279968384752e-02,8.465954547574380817e-02,-1.236328076790525199e-01
1.499999999999999944e-02,-1.603254537527225645e-02,1.260426010034487732e-01,-1.076139677409887058e-01
1.600000000000000033e-02,1.969056458995285808e-02,1.634622315633003364e-01,-6.529252225384261921e-02
1.700000000000000122e-02,7.481003874646914575e-02,1.600209846309196271e-01,-4.516977320198548029e-02
1.799999999999999864e-02,9.037603316153552946e-02,1.783956587016420625e-01,-4.310741250707368633e-02
1.899999999999999953e-02,1.361983887307126884e-01,2.061898935577475833e-01,-2.560309388867779146e-02
2.000000000000000042e-02,1.682833872649403817e-01,2.299696515465443070e-01,1.461590570318648148e-02
2.100000000000000130e-02,2.032974756839811548e-01,2.368018745101189149e-01,2.124208854406664168e-02
2.199999999999999872e-02,2.431725962616605452e-01,2.616487469015352785e-01,6.285537385887311757e-02
2.299999999999999961e-02,2.526547982579726015e-01,2.448573967717505018e-01,8.940079939998718528e-02
2.400000000000000050e-02,2.831086654291497529e-01,2.402298538638239223e-01,1.014780606207804498e-01
2.500000000000000139e-02,3.208264346535597555e-01,2.527739196392305709e-01,1.198649910099877647e-01
2.599999999999999881e-02,3.172709405459262499e-01,2.538901506241654227e-01,1.230553495428852728e-01
2.699999999999999969e-02,3.287051816870200094e-01,2.432208253507120999e-01,1.437268472791264629e-01
2.800000000000000058e-02,3.256620490940054791e-01,2.422454698640110482e-01,1.603621700691191532e-01
2.900000000000000147e-02,3.347647732920401853e-01,2.374860981283859751e-01,1.768805975596751123e-01
2.999999999999999889e-02,3.021846906316589254e-01,2.192229091740778568e-01,2.018353773202820056e-01
3.099999999999999978e-02,3.250604264470869365e-01,1.937558061756542993e-01,1.731673005327517001e-01
3.200000000000000067e-02,2.955361092403510082e-01,1.875308243424601840e-01,2.109056704267203153e-01
3.300000000000000155e-02,3.017437717970079536e-01,1.470801848879960683e-01,1.849139948966666558e-01
3.400000000000000244e-02,2.572459877702557574e-01,1.316635076341632626e-01,1.843006764110867723e-01
3.500000000000000333e-02,2.466043794767472375e-01,9.015600245279971336e-02,1.936402843199113155e-01
3.599999999999999728e-02,2.338213578562672035e-01,9.723857693003086500e-02,1.797427618652095160e-01
3.699999999999999817e-02,1.807887255931353021e-01,3.059781152380257677e-02,1.607078432360007358e-01
3.799999999999999906e-02,1.608316290335288778e-01,1.411706996822951164e-02,1.774565573021498754e-01
3.899999999999999994e-02,1.248972839025466464e-01,-2.479159993786928320e-02,1.542778916504410069e-01
4.000000000000000083e-02,8.604144084478890231e-02,-6.248558599004665898e-02,1.520846690473487417e-01
4.100000000000000172e-02,7.243594328414205974e-02,-9.458273308142271796e-02,1.178572704719327846e-01
4.200000000000000261e-02,5.075183484298137655e-03,-1.202678870776416609e-01,1.061357657857018300e-01
4.299999999999999656e-02,-3.572163730749867289e-02,-1.492845097988288183e-01,8.158051771708502153e-02
4.399999999999999745e-02,-5.423629822725843652e-02,-1.566761658784613376e-01,6.354898188571546369e-02
4.499999999999999833e-02,-7.722022571426792603e-02,-1.908736570609856076e-01,4.246302586623378061e-02
4.599999999999999922e-02,-1.255556586736782387e-01,-2.356632948369884739e-01,3.352661098910809500e-03
4.700000000000000011e-02,-1.728306967230971158e-01,-2.393126520274793945e-01,-8.330589137754177646e-04
4.800000000000000100e-02,-1.886427108541290087e-01,-2.330729516289734016e-01,-3.641978263194380061e-02
4.900000000000000189e-02,-2.188565964132738739e-01,-2.514174334309231540e-01,-5.150674505962787864e-02
5.000000000000000278e-02,-2.320561278117336534e-01,-2.542006497634563544e-01,-7.300151230047188800e-02
5.099999999999999672e-02,-2.673954001921325374e-01,-2.470063175128128785e-01,-8.076808142241741206e-02
5.199999999999999761e-02,-3.051260661431208776e-01,-2.537590936628231764e-01,-1.056897170778786088e-01
5.299999999999999850e-02,-3.161333812854948411e-01,-2.670562588389695513e-01,-1.354936098236318720e-01
5.399999999999999939e-02,-3.135457303707424037e-01,-2.516437542121841564e-01,-1.607154044916649926e-01
5.500000000000000028e-02,-3.360472334654684978e-01,-2.497577650380023717e-01,-1.593456612175671305e-01
5.600000000000000117e-02,-3.351097073453016550e-01,-2.182919986750677110e-01,-1.643466608360057979e-01
5.700000000000000205e-02,-3.397882049483146316e-01,-2.236089170378105506e-01,-1.612677851225777503e-01
5.800000000000000294e-02,-3.159954586251986774e-01,-1.770716007934754477e-01,-1.848708012184971661e-01
5.899999999999999689e-02,-3.159449911709953929e-01,-1.845323536820395460e-01,-1.958663443654210523e-01
5.999999999999999778e-02,-2.929760754299894909e-01,-1.619937534969304316e-01,-2.051443925987811445e-01
6.099999999999999867e-02,-2.690816654080264159e-01,-1.238193239419847214e-01,-2.165655455559709064e-01
6.199999999999999956e-02,-2.611776723237867470e-01,-9.603676869272445571e-02,-1.717470537282362320e-01
6.300000000000000044e-02,-2.318154047458662881e-01,-6.284664565393434377e-02,-1.828093933393878379e-01
6.400000000000000133e-02,-1.913320580611252431e-01,-4.135476681418068928e-02,-1.766155224725787232e-01
6.500000000000000222e-02,-1.804150370720945529e-01,-3.413266245048870821e-03,-1.716146940496722229e-01
6.600000000000000311e-02,-1.408770815889210104e-01,2.548774469107023891e-02,-1.494979450015367362e-01
6.700000000000000400e-02,-1.049391028258689906e-01,5.731032108215586285e-02,-1.411128369528669158e-01
6.800000000000000488e-02,-7.437519786823411361e-02,9.039950851474712334e-02,-1.272368381830500383e-01
6.900000000000000577e-02,-2.313823286375415664e-02,1.097839664302031060e-01,-1.260194879998955131e-01
7.000000000000000666e-02,3.768256109474419323e-03,1.507137808324608141e-01,-8.916676048314974012e-02
7.099999999999999367e-02,5.968654686766880491e-02,1.685633183002823721e-01,-7.235427263639540585e-02
7.199999999999999456e-02,6.896340194314033722e-02,1.960659919824706832e-01,-6.713389936375868672e-02
7.299999999999999545e-02,1.213080598844925029e-01,2.152519741816691090e-01,-2.746895196619586477e-02
7.399999999999999634e-02,1.627254421631457726e-01,2.292723718373970432e-01,-2.539310345250426690e-02
7.499999999999999722e-02,1.852561227766098828e-01,2.262058428075590100e-01,-7.615465309262292939e-04
7.599999999999999811e-02,2.060240327791285631e-01,2.532924662109831138e-01,4.044182512150248238e-02
7.699999999999999900e-02,2.408242991358922058e-01,2.497728224344956394e-01,3.710954554493449409e-02
7.799999999999999989e-02,2.701050438988763513e-01,2.495912943525636640e-01,8.662899204041142609e-02
7.900000000000000078e-02,2.790200039117595732e-01,2.554320988137722126e-01,1.161765712933569977e-01
8.000000000000000167e-02,2.920493840372826444e-01,2.599689856789075271e-01,1.089913013113523038e-01
8.100000000000000255e-02,3.122580834286469154e-01,2.623185851479569730e-01,1.523003993485566587e-01
8.200000000000000344e-02,3.276125819210870538e-01,2.402952507300390173e-01,1.413205461910799765e-01
8.300000000000000433e-02,3.283078984397319044e-01,2.051690769798754643e-01,1.829865364226977154e-01
8.400000000000000522e-02,3.311296015162462081e-01,2.081197709902792015e-01,1.721501853616695665e-01
8.500000000000000611e-02,3.088848691901834864e-01,2.029698522573285258e-01,1.906438891134711322e-01
8.599999999999999312e-02,3.243006934582419176e-01,1.846717608104091746e-01,1.962882009871452782e-01
8.699999999999999400e-02,2.914658425335810432e-01,1.645499678303311286e-01,2.057382199139334011e-01
8.799999999999999489e-02,2.849393399774277635e-01,1.432545662961993982e-01,2.021053270951085334e-01
8.899999999999999578e-02,2.617728525295265896e-01,1.037161896334341249e-01,2.043430057050059090e-01
8.999999999999999667e-02,2.573413250741063418e-01,7.546328726647906493e-02,2.029985250564280974e-01
9.099999999999999756e-02,2.185371918063380159e-01,3.088230306969251202e-02,1.922666789439793356e-01
9.199999999999999845e-02,2.016843717777032918e-01,1.128258884475903841e-02,1.763628292400147290e-01
9.299999999999999933e-02,1.561596851323238666e-01,-3.278994373520505851e-02,1.683030451992627297e-01
9.400000000000000022e-02,1.140428748235485790e-01,-6.461303338506849125e-02,1.666898843100872996e-01
9.500000000000000111e-02,8.593252691159200540e-02,-7.669504605155857968e-02,1.369591182685242492e-01
9.600000000000000200e-02,2.320424722907608178e-02,-1.152921671584207497e-01,1.359234094901898560e-01
9.700000000000000289e-02,-5.886483806498144823e-03,-1.364816706565159521e-01,1.050842549344195298e-01
9.800000000000000377e-02,-3.568951127394329181e-02,-1.628777076642175525e-01,8.254310285882569820e-02
9.900000000000000466e-02,-7.642751462009531038e-02,-1.812938273749432339e-01,6.597883114844010910e-02
1.000000000000000056e-01,-1.134460066632710235e-01,-2.190821058728864290e-01,6.147803067565173196e-02
1.010000000000000064e-01,-1.252173585496637875e-01,-2.309968976575905997e-01,3.171704060072488146e-02
1.019999999999999934e-01,-1.951179568117074326e-01,-2.404887845329192197e-01,-1.104012357005730409e-02
1.029999999999999943e-01,-2.009809473703669802e-01,-2.723373907931052051e-01,-3.208740726900310980e-02
1.039999999999999952e-01,-2.476987301928344765e-01,-2.636340723050303869e-01,-3.314872570613509872e-02
1.049999999999999961e-01,-2.703430245673498211e-01,-2.924313243912159410e-01,-5.950680794987606159e-02
1.059999999999999970e-01,-2.851170904277833262e-01,-2.614647833641840502e-01,-7.185702821084294367e-02
1.069999999999999979e-01,-2.977204471509547479e-01,-2.675910746621822378e-01,-1.053713002972225532e-01
1.079999999999999988e-01,-3.150606256850767561e-01,-2.408481002179192199e-01,-1.068025778445175905e-01
1.089999999999999997e-01,-3.204670449889754913e-01,-2.457441601038938828e-01,-1.493128435671447207e-01
1.100000000000000006e-01,-3.285068761982804508e-01,-2.381519703484915040e-01,-1.645092240701449826e-01
1.110000000000000014e-01,-3.411263670757912481e-01,-2.165923444674308085e-01,-1.698923445959428513e-01
1.120000000000000023e-01,-3.265459208601915186e-01,-1.787817433276671641e-01,-1.671353854653101767e-01
1.130000000000000032e-01,-3.236112420339123941e-01,-1.665277843119548351e-01,-1.849922772945965244e-01
1.140000000000000041e-01,-3.081763787555016898e-01,-1.383921725829354854e-01,-1.785003507408135792e-01
1.150000000000000050e-01,-3.005897914495910261e-01,-1.298078595419385195e-01,-1.991840803620535116e-01
1.160000000000000059e-01,-2.705283936858995930e-01,-9.166898096168198118e-02,-1.756901812198707891e-01
1.170000000000000068e-01,-2.487417582234651703e-01,-6.245646031628994399e-02,-2.053330076703095142e-01
1.179999999999999938e-01,-2.286481112394673221e-01,-4.134740814180913604e-02,-1.873603699492775165e-01
1.189999999999999947e-01,-1.874745886245418047e-01,-5.759684015722316835e-03,-1.727933355731774978e-01
1.199999999999999956e-01,-1.460092579593071649e-01,2.911911921233100234e-02,-1.748640392376844266e-01
1.209999999999999964e-01,-1.329872484678985278e-01,7.826638418026649058e-02,-1.878219861521309708e-01
1.219999999999999973e-01,-7.398243112402159982e-02,7.721332443114210797e-02,-1.343880645849371558e-01
1.229999999999999982e-01,-4.883699460161097100e-02,1.160773623374126012e-01,-1.254157799614449287e-01
1.239999999999999991e-01,-4.287299653270341959e-03,1.440419749033958752e-01,-1.081663056557132102e-01
1.250000000000000000e-01,1.486044685193351096e-02,1.615978345978101027e-01,-1.002249396899232842e-01
1.260000000000000009e-01,6.979206146431538027e-02,1.863025845748430831e-01,-8.317846897500813519e-02
1.270000000000000018e-01,1.042044743572324988e-01,2.088705068327365577e-01,-5.514547498746497078e-02
1.280000000000000027e-01,1.308021200136575690e-01,2.289032697994339838e-01,-2.918196936653059265e-02
1.290000000000000036e-01,1.592181312723951192e-01,2.644449503623034770e-01,2.143193894713192951e-02
1.300000000000000044e-01,2.034322587556940953e-01,2.629414659140740795e-01,2.312295915170297853e-02
1.310000000000000053e-01,2.470113071706177277e-01,2.645712792322265083e-01,2.718862159045755400e-02
1.320000000000000062e-01,2.329873416581517143e-01,2.748525714697608868e-01,5.627151883181980008e-02
1.330000000000000071e-01,2.694234815957374241e-01,2.519495204550464829e-01,7.502869877190680714e-02
1.340000000000000080e-01,2.942942057632637609e-01,2.594986850498436914e-01,1.078471244803586165e-01
1.350000000000000089e-01,3.184909976574885060e-01,2.504031218956275229e-01,1.183602867078342585e-01
1.360000000000000098e-01,3.157578569086160192e-01,2.295847374434629162e-01,1.281417005276803134e-01
1.370000000000000107e-01,3.347130764949761139e-01,2.324943809373805348e-01,1.359382337981985822e-01
1.380000000000000115e-01,3.243089700497526207e-01,2.068106746233502602e-01,1.706076086456401186e-01
1.390000000000000124e-01,3.127392296343278755e-01,1.940709791780701465e-01,1.665719692960244691e-01
1.400000000000000133e-01,3.054581107945828489e-01,1.887233324908803578e-01,1.737032469755139252e-01
1.409999999999999865e-01,3.098142966942831200e-01,1.616836632896101467e-01,2.084695727108236418e-01
1.419999999999999873e-01,2.988132103320149668e-01,1.413467141096907964e-01,1.805726345151071333e-01
1.429999999999999882e-01,2.919940682140685917e-01,9.165815344615552140e-02,2.018722689170225626e-01
1.439999999999999891e-01,2.551100768132061325e-01,5.955383470896286058e-02,1.853578114944146593e-01
1.449999999999999900e-01,2.222948751482545504e-01,2.983395798255553816e-02,2.025812412710855104e-01
1.459999999999999909e-01,1.983233570179449567e-01,2.099210772851409570e-02,1.998892025526825544e-01
1.469999999999999918e-01,1.580123607297573562e-01,-3.127597757499549214e-02,1.666768040401792328e-01
1.479999999999999927e-01,1.273835779303915117e-01,-6.539873749049394946e-02,1.564761790706905298e-01
1.489999999999999936e-01,9.132586491546286489e-02,-7.339069943650598782e-02,1.451030828120831451e-01
1.499999999999999944e-01,6.554770881156250784e-02,-1.085459060245971413e-01,1.401130509992714601e-01
1.509999999999999953e-01,1.556203143915397928e-02,-1.439620176872785651e-01,1.213479580840567534e-01
1.519999999999999962e-01,-1.923584671150417938e-02,-1.724824354082042654e-01,1.214467803701749643e-01
1.529999999999999971e-01,-3.323358304774333416e-02,-1.725221051620089152e-01,9.081366546117115857e-02
1.539999999999999980e-01,-1.062202734919519276e-01,-2.245204110571550615e-01,7.323722384819325582e-02
1.549999999999999989e-01,-1.102730963897259331e-01,-2.289755995593255600e-01,4.895094635803463878e-02
1.559999999999999998e-01,-1.742418030931954798e-01,-2.454795911741121939e-01,2.950496854774480732e-02
1.570000000000000007e-01,-1.683091766928935251e-01,-2.635727458331362238e-01,9.709505913087383699e-03
1.580000000000000016e-01,-2.250354261832145097e-01,-2.425488568520380583e-01,-7.470138874353358244e-03
1.590000000000000024e-01,-2.243010401169379109e-01,-2.636430456107962117e-01,-4.337071899519542167e-02
1.600000000000000033e-01,-2.779267147101262547e-01,-2.598786695500888144e-01,-6.060688464783647172e-02
1.610000000000000042e-01,-2.891595520777512363e-01,-2.406736213385536893e-01,-9.756663548836548572e-02
1.620000000000000051e-01,-2.957819199756748230e-01,-2.534047261152209685e-01,-9.780096740491002472e-02
1.630000000000000060e-01,-3.152481243172128855e-01,-2.326231988246536542e-01,-1.283001219351678768e-01
1.640000000000000069e-01,-3.433800628651457187e-01,-2.257149206138142628e-01,-1.456091950555678805e-01
1.650000000000000078e-01,-3.347500675391428260e-01,-2.096400103323009523e-01,-1.461452201672128748e-01
1.660000000000000087e-01,-3.270715700376158330e-01,-2.003620833987510841e-01,-1.754140700897788285e-01
1.670000000000000095e-01,-3.339059992051574000e-01,-1.842870678517643246e-01,-1.783354728740095541e-01
1.680000000000000104e-01,-3.200088655589246045e-01,-1.579914590910008465e-01,-2.032293550096577472e-01
1.690000000000000113e-01,-3.095403354234289584e-01,-1.244461009092561188e-01,-1.767547540906324877e-01
1.700000000000000122e-01,-2.932943813452925652e-01,-9.387566683601641926e-02,-1.973140809880016555e-01
1.710000000000000131e-01,-2.498231206536024041e-01,-4.877143564148162663e-02,-1.958071999324634827e-01
1.719999999999999862e-01,-2.178203597888725418e-01,-2.641236667895838219e-02,-1.821158078884863307e-01
1.729999999999999871e-01,-2.010430100547628551e-01,-5.144653824529935547e-03,-1.817868288119404985e-01
1.739999999999999880e-01,-1.684479552233779376e-01,3.400146310036497588e-02,-1.845555020993010220e-01
1.749999999999999889e-01,-1.352403895775837195e-01,5.842345111189984480e-02,-1.816045311968182974e-01
1.759999999999999898e-01,-1.128694248975593700e-01,9.595643667438119584e-02,-1.677473174129681111e-01
1.769999999999999907e-01,-5.418127362778501349e-02,1.299555370875472293e-01,-1.530189317696592777e-01
1.779999999999999916e-01,-2.672372689749439451e-02,1.358986424054917375e-01,-1.374181036829597857e-01
1.789999999999999925e-01,6.488990722013573964e-03,1.595027046243673863e-01,-1.130983056331522907e-01
1.799999999999999933e-01,5.031529678004427464e-02,1.866412798210438095e-01,-9.792001857522364405e-02
1.809999999999999942e-01,8.569368849088934703e-02,1.980911402148685663e-01,-7.713277297430455592e-02
1.819999999999999951e-01,1.093574293050154911e-01,2.246290463408220917e-01,-5.556692060236423369e-02
1.829999999999999960e-01,1.556874953071077650e-01,2.137008872623665789e-01,-2.769873105897105448e-02
1.839999999999999969e-01,1.770287509506581758e-01,2.406906537693302151e-01,-5.086487394475484175e-03
1.849999999999999978e-01,2.025562967233756340e-01,2.437832830111892890e-01,6.367682212253280433e-03
1.859999999999999987e-01,2.491826055946823881e-01,2.664335259092865948e-01,2.895640416331717037e-02
1.869999999999999996e-01,2.776361421901024640e-01,2.419155292273964253e-01,3.826501359221654713e-02
1.880000000000000004e-01,2.767316201615817040e-01,2.639177994007531614e-01,7.248177694831287043e-02
1.890000000000000013e-01,3.072015734705547119e-01,2.548067365454463884e-01,9.169280224220469067e-02
1.900000000000000022e-01,3.271566881868814280e-01,2.494473408376799983e-01,1.267930972400498624e-01
1.910000000000000031e-01,3.395135630804529958e-01,2.336391422087862602e-01,1.208634025952107505e-01
1.920000000000000040e-01,3.214027155579567974e-01,2.001051110206101546e-01,1.689049893144039249e-01
1.930000000000000049e-01,3.223829625696699175e-01,2.003741200031728398e-01,1.624712559790969235e-01
1.940000000000000058e-01,3.232921433792380062e-01,1.739533811942886310e-01,1.647984626265688313e-01
1.950000000000000067e-01,3.216882758940827203e-01,1.643785546954830978e-01,1.870472793865837202e-01
1.960000000000000075e-01,3.031575329059530421e-01,1.329776185904159025e-01,1.720220297237309848e-01
1.970000000000000084e-01,3.015145590751682758e-01,8.652635315222576007e-02,2.077652633860900822e-01
1.980000000000000093e-01,2.520675698908217965e-01,6.683451048644260817e-02,1.810498079135321736e-01
1.990000000000000102e-01,2.357786204883391412e-01,4.467933416866899654e-02,2.012315278381412165e-01
2.000000000000000111e-01,2.062949150133502330e-01,-2.359412791511676915e-03,1.918659424637838562e-01
2.010000000000000120e-01,1.680908062075054388e-01,-2.445957590004992077e-02,1.982690112915881098e-01
2.020000000000000129e-01,1.592478521295883631e-01,-3.435340794607250753e-02,1.956191294815272930e-01
2.030000000000000138e-01,1.228651467333200104e-01,-9.114846590808668714e-02,1.696619130172242196e-01
2.039999999999999869e-01,6.441110948633244071e-02,-1.038282878148493460e-01,1.597362434754087124e-01
2.049999999999999878e-01,2.957656498447279805e-02,-1.468077743875904617e-01,1.590706342626920788e-01
2.059999999999999887e-01,4.094566885913000949e-03,-1.554406030699864716e-01,1.290506144325775650e-01
2.069999999999999896e-01,-2.908242690599719196e-02,-1.704773682783810584e-01,9.098063993225022350e-02
2.079999999999999905e-01,-6.284015835988790433e-02,-2.122672416604535761e-01,8.949511288132604159e-02
2.089999999999999913e-01,-1.089642368243395193e-01,-2.338168022631197940e-01,6.897040764058398610e-02
2.099999999999999922e-01,-1.332709635135393145e-01,-2.591171129662110939e-01,5.523987989796612375e-02
2.109999999999999931e-01,-1.790123602541334735e-01,-2.486031455916812571e-01,2.550282073366711560e-02
2.119999999999999940e-01,-2.055219903314592922e-01,-2.545129615756324681e-01,4.943098673065348184e-03
2.129999999999999949e-01,-2.274870070748358231e-01,-2.713956293801684794e-01,-2.358670115917308949e-02
2.139999999999999958e-01,-2.562869922174317860e-01,-2.636589382719971009e-01,-4.614868664389713132e-02
2.149999999999999967e-01,-2.826111692726388513e-01,-2.568653035306600052e-01,-6.068477497627289274e-02
2.159999999999999976e-01,-2.919480070929758586e-01,-2.402215889365425239e-01,-8.277371465881863677e-02
2.169999999999999984e-01,-3.154403402944235824e-01,-2.464479541357263992e-01,-9.029949448942825585e-02
2.179999999999999993e-01,-3.270008937643004709e-01,-2.330034229117013966e-01,-1.218474571369058956e-01
2.190000000000000002e-01,-3.278210774437825825e-01,-2.148640242442157455e-01,-1.522545062017526818e-01
2.200000000000000011e-01,-3.299006408725656536e-01,-1.861835329176932396e-01,-1.730440976507206241e-01
2.210000000000000020e-01,-3.213082665932228688e-01,-1.764995389537416526e-01,-1.738777937700605181e-01
2.220000000000000029e-01,-3.175728477644304548e-01,-1.262562050653329437e-01,-1.831210614413892601e-01
2.230000000000000038e-01,-3.060827723109296183e-01,-1.019991220475820332e-01,-1.905614078348518703e-01
2.240000000000000047e-01,-2.735865207792622655e-01,-8.844869986857487043e-02,-2.133900427788279486e-01
2.250000000000000056e-01,-2.752366658772046337e-01,-5.190857305733834887e-02,-1.889982256423161089e-01
2.260000000000000064e-01,-2.256701849937175763e-01,-1.957481202107444820e-02,-1.824445780577381437e-01
2.270000000000000073e-01,-2.044182150336237291e-01,-1.148385310603237258e-02,-1.814164558752525969e-01
2.280000000000000082e-01,-1.598066642548448268e-01,2.426972695053609963e-02,-1.964878826181860605e-01
2.290000000000000091e-01,-1.382818834324153756e-01,5.897251799689844087e-02,-1.803054394402149041e-01
2.300000000000000100e-01,-1.231676828735520507e-01,7.808722204813210721e-02,-1.606339659252404017e-01
2.310000000000000109e-01,-9.783388844462688472e-02,1.301806796351228090e-01,-1.507039381889752894e-01
2.320000000000000118e-01,-4.416137865201825302e-02,1.407057712846240816e-01,-1.533267047244383507e-01
2.330000000000000127e-01,-1.456699174967144607e-02,1.831630594665336065e-01,-1.377575001092930518e-01
2.340000000000000135e-01,4.540250404162603920e-02,1.685900963114977946e-01,-1.337872621905741022e-01
2.349999999999999867e-01,6.406451759972617288e-02,2.208177745651879464e-01,-1.116482558482796011e-01
2.359999999999999876e-01,9.993020450970171997e-02,2.119208009818558114e-01,-7.609230252335003053e-02
2.369999999999999885e-01,1.514128947631285804e-01,2.423752709112598214e-01,-5.245925386364051063e-02
2.379999999999999893e-01,1.648056985061920054e-01,2.711179286207904826e-01,-4.902948639277376897e-02
2.389999999999999902e-01,2.023527785496206377e-01,2.644233998197829116e-01,-1.638762147015678319e-04
2.399999999999999911e-01,2.318236678577526300e-01,2.507385224036381977e-01,8.380671249493962943e-03
2.409999999999999920e-01,2.467058659749008231e-01,2.632577435075890149e-01,3.487825282160198631e-02
2.419999999999999929e-01,2.984877655741520197e-01,2.607012551644699583e-01,5.327481591541625289e-02
2.429999999999999938e-01,2.815301493564549840e-01,2.575090961537666034e-01,6.930786990030993189e-02
2.439999999999999947e-01,3.141685243207296141e-01,2.416858045108563613e-01,8.156917373968920748e-02
2.449999999999999956e-01,3.223940048329402286e-01,2.231560150757498640e-01,9.845680851877738893e-02
2.459999999999999964e-01,3.408884917062191544e-01,2.042435646828308082e-01,1.531582476044701935e-01
2.469999999999999973e-01,3.449290549330589206e-01,1.978544539469273278e-01,1.550948581576910290e-01
2.479999999999999982e-01,3.268080386443200647e-01,1.612049440103666964e-01,1.650707964232123182e-01
2.489999999999999991e-01,3.097990300177789202e-01,1.410770865303385968e-01,1.748170259668532234e-01
2.500000000000000000e-01,3.070099297555245466e-01,1.299324924608924736e-01,1.728031201917623327e-01
2.510000000000000009e-01,2.876710040612638353e-01,1.077040397649171866e-01,1.995808073439186425e-01
2.520000000000000018e-01,2.692193329492010290e-01,6.499745271776732891e-02,2.077846819126646927e-01
2.530000000000000027e-01,2.531441877219763326e-01,4.224045189743710210e-02,2.076695269985706915e-01
2.540000000000000036e-01,2.393310607941092072e-01,-1.176489259851590773e-02,1.859531848109655383e-01
2.550000000000000044e-01,1.944479516587305223e-01,-1.825409964922679318e-02,1.949252329315890597e-01
2.560000000000000053e-01,1.744666351279775818e-01,-6.383231040829935587e-02,1.802288748702581822e-01
2.570000000000000062e-01,1.067909538585523760e-01,-8.945350428110769581e-02,1.846229205571004173e-01
2.580000000000000071e-01,9.311634887155502416e-02,-1.309657158609041638e-01,1.630050100823360326e-01
2.590000000000000080e-01,4.917847693451835034e-02,-1.304168080693299536e-01,1.486572427518882411e-01
2.600000000000000089e-01,1.313373668919379927e-02,-1.709245450755086382e-01,1.524199933954238084e-01
2.610000000000000098e-01,-1.220548695150482955e-02,-2.063151926589393281e-01,1.341558844085749824e-01
2.620000000000000107e-01,-5.612800180158423330e-02,-2.201448265293088069e-01,1.074350275826647522e-01
2.630000000000000115e-01,-8.813379441173918583e-02,-2.155102133375862150e-01,1.095460472987141998e-01
2.640000000000000124e-01,-1.231911897196835554e-01,-2.358569860789108408e-01,4.765384668434154147e-02
2.650000000000000133e-01,-1.549951115300819138e-01,-2.522867023428250755e-01,4.397199406358037049e-02
2.660000000000000142e-01,-1.965373332693672592e-01,-2.621787958660254381e-01,3.786193062796854025e-02
2.670000000000000151e-01,-2.260976179514756212e-01,-2.619745179639683119e-01,9.574823223655373403e-03
2.680000000000000160e-01,-2.357043786223444737e-01,-2.532188215636980710e-01,-1.290564569957583160e-02
2.690000000000000169e-01,-2.873179638173893324e-01,-2.706134544171964196e-01,-4.004917127610500144e-02
2.700000000000000178e-01,-3.056756184731240222e-01,-2.459269083293700864e-01,-8.017646436989021852e-02
2.710000000000000187e-01,-3.067615761141654906e-01,-2.377750390130783931e-01,-7.757743839621888959e-02
2.720000000000000195e-01,-3.147907916377841731e-01,-2.486106337508274255e-01,-1.063366220828364517e-01
2.730000000000000204e-01,-3.266215393527498456e-01,-2.078530582160336149e-01,-1.212781532294995718e-01
2.740000000000000213e-01,-3.225533521531787629e-01,-1.939048661511376670e-01,-1.388332709394234643e-01
2.750000000000000222e-01,-3.281448167803739935e-01,-1.590565242542909263e-01,-1.646365468932743936e-01
2.760000000000000231e-01,-3.088027527818618112e-01,-1.251508455510311202e-01,-1.778601120714554673e-01
2.770000000000000240e-01,-3.231219791326130353e-01,-1.036240606818127213e-01,-1.763435180565712801e-01
2.780000000000000249e-01,-2.995999516594962664e-01,-9.070345886360835219e-02,-1.826396433208314352e-01
2.790000000000000258e-01,-2.524909187213847384e-01,-7.147792790862796120e-02,-1.884354652552763798e-01
2.800000000000000266e-01,-2.570531775663713048e-01,-3.746262002625922599e-02,-1.989787148200068134e-01
2.810000000000000275e-01,-2.261853771611669894e-01,1.153261261574514175e-02,-1.958134072503578682e-01
2.819999999999999729e-01,-2.016784816341743169e-01,2.444643108007514207e-02,-1.927542984814683558e-01
2.829999999999999738e-01,-1.608562788389319709e-01,6.289589067303361092e-02,-1.664418800219262251e-01
2.839999999999999747e-01,-1.387724246675816064e-01,7.785616104940418225e-02,-1.679574781112063153e-01
2.849999999999999756e-01,-8.886388783408408210e-02,1.251698994725574110e-01,-1.757553605169396571e-01
2.859999999999999765e-01,-5.795469381970324435e-02,1.378632877182487393e-01,-1.562398842124549658e-01
2.869999999999999774e-01,-3.189459584792821850e-02,1.686244358959970158e-01,-1.392748219837826873e-01
2.879999999999999782e-01,-9.780638339801681069e-03,1.881286352053003486e-01,-1.336628144988981082e-01
2.889999999999999791e-01,3.781910577418751140e-02,2.109262706418032762e-01,-1.092065077239784826e-01
2.899999999999999800e-01,7.829512249605453944e-02,2.436375908290654146e-01,-1.012131304893335443e-01
2.909999999999999809e-01,1.293467904731961382e-01,2.172602709335706150e-01,-8.513055069213541770e-02
2.919999999999999818e-01,1.447550654823390459e-01,2.589433010161096838e-01,-6.106123816102060342e-02
2.929999999999999827e-01,1.953314260945327452e-01,2.676838389253021200e-01,-1.969940028777475774e-02
2.939999999999999836e-01,2.183882912221172812e-01,2.659550265753494180e-01,-9.035666453173990878e-03
2.949999999999999845e-01,2.356637095851661090e-01,2.679388394596124989e-01,-6.417509280650869792e-03
2.959999999999999853e-01,2.678241643926823068e-01,2.533604274563400760e-01,1.802504619162401123e-02
2.969999999999999862e-01,2.733503205070270670e-01,2.617240271455555378e-01,4.739375881997028028e-02
2.979999999999999871e-01,3.088101784525096316e-01,2.429542671938608733e-01,7.976941458752580261e-02
2.989999999999999880e-01,3.233713795533632029e-01,2.334528497116707679e-01,8.690089656573427024e-02
2.999999999999999889e-01,3.160122217900244723e-01,2.269254098426469746e-01,1.029371585488649821e-01
3.009999999999999898e-01,3.379245573266973501e-01,1.791281215485989731e-01,1.347428262053064763e-01
3.019999999999999907e-01,3.274005379006324490e-01,1.907906975755664647e-01,1.635653813990965710e-01
3.029999999999999916e-01,3.437295265212031437e-01,1.350687183761236088e-01,1.569382377785769611e-01
3.039999999999999925e-01,3.072699938582602597e-01,1.015428371891640424e-01,1.775325081186580056e-01
3.049999999999999933e-01,2.834531871580701079e-01,1.009456511954954505e-01,1.816712185430705562e-01
3.059999999999999942e-01,2.810140116759486384e-01,5.493255652730599098e-02,2.068552955859682130e-01
3.069999999999999951e-01,2.412328379110845467e-01,2.443846272099747460e-02,1.770245923621091011e-01
3.079999999999999960e-01,2.396516052128466467e-01,-1.143506241025078751e-02,2.167230074580472898e-01
3.089999999999999969e-01,2.197438024300338855e-01,-2.157501072676536874e-02,1.831199570310221569e-01
3.099999999999999978e-01,1.804731505182239626e-01,-6.059872263618865801e-02,1.937429569401258600e-01
3.109999999999999987e-01,1.362075910838242976e-01,-8.632335126599124941e-02,1.876331765907627847e-01
3.119999999999999996e-01,1.096872436868797929e-01,-1.106089907111903886e-01,1.815836537990533905e-01
3.130000000000000004e-01,7.011828382227233702e-02,-1.415220704092435278e-01,1.910091845216890238e-01
3.140000000000000013e-01,3.578521225062673145e-02,-1.772964478377204167e-01,1.539449889239374869e-01
3.150000000000000022e-01,-2.703408540387722010e-03,-1.965897084548563767e-01,1.430231593368584686e-01
3.160000000000000031e-01,-4.393729470545142124e-02,-2.277679338801217312e-01,1.198350029215628082e-01
3.170000000000000040e-01,-6.372549003456282057e-02,-2.168223934210450343e-01,1.202017521709734388e-01
3.180000000000000049e-01,-1.084741760230278768e-01,-2.405000932695783022e-01,7.487220249676933281e-02
3.190000000000000058e-01,-1.555000286973943491e-01,-2.393613442564408722e-01,8.677465237520685937e-02
3.200000000000000067e-01,-1.832842417767505949e-01,-2.673552957026248955e-01,4.594579773468532302e-02
3.210000000000000075e-01,-2.022841419097651527e-01,-2.414218399756467570e-01,2.547567421387565700e-02
3.220000000000000084e-01,-2.275815086670992804e-01,-2.619420783642256723e-01,-6.213244197206310021e-03
3.230000000000000093e-01,-2.540283822644191503e-01,-2.511764424380716343e-01,-1.301009058753747893e-02
3.240000000000000102e-01,-2.857907641000037025e-01,-2.486238369800949921e-01,-4.713195089436768986e-02
3.250000000000000111e-01,-3.107470170465767567e-01,-2.357425655267444686e-01,-7.032545427630818025e-02
3.260000000000000120e-01,-3.054557746706466070e-01,-2.302623464603564818e-01,-7.170414238514116745e-02
3.270000000000000129e-01,-3.285734466766336292e-01,-2.119439369178542087e-01,-1.032514932687731285e-01
3.280000000000000138e-01,-3.272427978020149286e-01,-1.829068356027994391e-01,-1.325422695882120250e-01
3.290000000000000147e-01,-3.342571555034736797e-01,-1.734325077654297886e-01,-1.293705829315747458e-01
3.300000000000000155e-01,-3.170925194408399928e-01,-1.491449683195045228e-01,-1.572412560223083455e-01
3.310000000000000164e-01,-3.107416033828913071e-01,-1.292971892089423980e-01,-1.585246766704778154e-01
3.320000000000000173e-01,-3.086855136102470420e-01,-9.166581648679870964e-02,-1.776096487025614623e-01
3.330000000000000182e-01,-2.906247207577234981e-01,-5.368440583667757893e-02,-2.054895848053739926e-01
3.340000000000000191e-01,-2.444662234731086459e-01,-3.019812444185042757e-02,-1.806235108775361420e-01
3.350000000000000200e-01,-2.483396968787057735e-01,-1.234875967315823657e-03,-2.001522362526022836e-01
3.360000000000000209e-01,-2.006557803818639629e-01,3.197031361018062845e-02,-1.980498979326252573e-01
3.370000000000000218e-01,-1.919813553792772687e-01,5.232580872363661734e-02,-1.847699451143013372e-01
3.380000000000000226e-01,-1.403631668200246707e-01,9.841847016096728906e-02,-1.921858994786631580e-01
3.390000000000000235e-01,-1.232078617762386169e-01,1.184669098582450258e-01,-1.925814978970956381e-01
3.400000000000000244e-01,-8.025255071985118449e-02,1.391907168256189820e-01,-1.734869941413214323e-01
3.410000000000000253e-01,-4.499408874733966390e-02,1.644426017731581702e-01,-1.558287406252982510e-01
3.420000000000000262e-01,-1.997660533966031868e-02,2.006534382198033595e-01,-1.469861024650082615e-01
3.430000000000000271e-01,4.418669081277422361e-02,2.139365485698039027e-01,-1.316101389412114298e-01
3.439999999999999725e-01,6.558519248436749105e-02,2.388941506476268684e-01,-1.136164109507404596e-01
3.449999999999999734e-01,1.055274708702686054e-01,2.444851983078421276e-01,-1.038025332699727687e-01
3.459999999999999742e-01,1.427218690462401240e-01,2.624829532411010469e-01,-8.218494750784433034e-02
3.469999999999999751e-01,1.730336714951312693e-01,2.445312770663690960e-01,-4.760432924206723510e-02
3.479999999999999760e-01,2.032921760617037166e-01,2.756449886139130112e-01,-4.314042885585330639e-02
3.489999999999999769e-01,2.217516230419697976e-01,2.695278172875679168e-01,-1.250442199201604390e-02
3.499999999999999778e-01,2.507531272938668954e-01,2.793150805463135433e-01,9.467642468639495337e-03
3.509999999999999787e-01,2.894133717782026438e-01,2.587167001896583662e-01,2.843917659060474223e-02
3.519999999999999796e-01,2.957664511908412730e-01,2.376365578634450915e-01,4.327825017160344401e-02
3.529999999999999805e-01,3.176351649469440486e-01,2.341675167196783647e-01,8.039467553766531382e-02
3.539999999999999813e-01,3.310735260138640834e-01,2.137905403170346774e-01,1.254051616038925898e-01
3.549999999999999822e-01,3.218351097939479155e-01,1.863741944492062486e-01,1.114769062174734149e-01
3.559999999999999831e-01,3.248790830567717669e-01,1.754142582586205590e-01,1.191723030299903369e-01
3.569999999999999840e-01,3.214235016021917968e-01,1.308250108988552873e-01,1.348640024195177922e-01
3.579999999999999849e-01,3.399330600494538945e-01,1.130384972595062099e-01,1.606448638877437107e-01
3.589999999999999858e-01,2.978442702479826010e-01,9.178216929061433493e-02,1.710870125692504629e-01
3.599999999999999867e-01,2.928821014894523733e-01,5.490634145938959321e-02,1.916543624006628588e-01
3.609999999999999876e-01,2.808243868845606284e-01,1.796221057364609519e-02,1.949165290108441362e-01
3.619999999999999885e-01,2.512075843803133757e-01,4.630596148742911929e-03,2.038708747257677589e-01
3.629999999999999893e-01,2.041026235459965088e-01,-2.674912225463304052e-02,2.142438809083416495e-01
3.639999999999999902e-01,1.816608966559691840e-01,-5.139457066627281523e-02,1.966971845965287680e-01
3.649999999999999911e-01,1.739944011132859014e-01,-8.649218637938990706e-02,1.927970504541827168e-01
3.659999999999999920e-01,1.374351017526242447e-01,-1.120517680931978760e-01,1.877241526078494982e-01
3.669999999999999929e-01,1.097542790935696760e-01,-1.504843224316331496e-01,1.815186254248251640e-01
3.679999999999999938e-01,7.238895188206695419e-02,-1.679746200265903322e-01,1.640438223486749836e-01
3.689999999999999947e-01,3.408013669026918602e-02,-1.795344644310568061e-01,1.697145139805626979e-01
3.699999999999999956e-01,-9.448730100725742653e-03,-1.915304936546824155e-01,1.340905053952810844e-01
3.709999999999999964e-01,-4.652739672799804244e-02,-2.386133848111330336e-01,1.293805222294320267e-01
3.719999999999999973e-01,-1.042750723513048011e-01,-2.424137080964085533e-01,9.759987197182057317e-02
3.729999999999999982e-01,-1.295898440772837168e-01,-2.428436368838044479e-01,8.517109737961639504e-02
3.739999999999999991e-01,-1.606030763118651838e-01,-2.545614865717070185e-01,7.015306323286281398e-02
3.750000000000000000e-01,-2.071964306083041440e-01,-2.592524933778989626e-01,6.177517554732622068e-02
3.760000000000000009e-01,-2.326475142377718297e-01,-2.503922869515234351e-01,3.085594134960167531e-02
3.770000000000000018e-01,-2.731717430056549989e-01,-2.630430223317553606e-01,-5.530274657162261194e-03
3.780000000000000027e-01,-2.660158381428489038e-01,-2.489682885203980955e-01,-9.177628753753797400e-03
3.790000000000000036e-01,-2.984374866313487251e-01,-2.326665852253040068e-01,-3.591227488097600146e-02
3.800000000000000044e-01,-3.041305774673313533e-01,-2.352819762650836533e-01,-6.621095730711494542e-02
3.810000000000000053e-01,-3.093305285896267298e-01,-2.249977069788129114e-01,-8.517828768443916343e-02
3.820000000000000062e-01,-3.234131354010307269e-01,-1.987680537588597252e-01,-9.186025271632122791e-02
3.830000000000000071e-01,-3.270828058686889861e-01,-1.797478790114567238e-01,-1.195003255283008520e-01
3.840000000000000080e-01,-3.287535800400621100e-01,-1.431623206755251454e-01,-1.485743660883660500e-01
3.850000000000000089e-01,-3.270910864175818333e-01,-1.347531207324784153e-01,-1.724646273450111400e-01
3.860000000000000098e-01,-3.005618885767830095e-01,-9.707668625415004360e-02,-1.699182684967467105e-01
3.870000000000000107e-01,-2.689038433897478764e-01,-5.393656983311048703e-02,-1.541464125687505016e-01
3.880000000000000115e-01,-2.862504979975312724e-01,-1.436650940328665707e-02,-1.861211433275911376e-01
3.890000000000000124e-01,-2.457281269990169992e-01,1.721618452690841863e-02,-2.071864095964872365e-01
3.900000000000000133e-01,-2.288773412732530710e-01,4.553680761203111188e-02,-1.932757931809036545e-01
3.910000000000000142e-01,-2.200673775548989131e-01,5.629901380209245687e-02,-2.057298949859490411e-01
3.920000000000000151e-01,-1.776044954959440092e-01,9.793393186051388422e-02,-1.855931679230931886e-01
3.930000000000000160e-01,-1.453704344075512356e-01,1.222198867143928641e-01,-1.989368232860903030e-01
3.940000000000000169e-01,-1.001944526685892151e-01,1.501960511266612341e-01,-1.752335130446641687e-01
3.950000000000000178e-01,-7.398374904575473476e-02,1.807729790774298684e-01,-1.852097124049455479e-01
3.960000000000000187e-01,-9.293736971540750985e-03,1.833442910107254131e-01,-1.665865932395177718e-01
3.970000000000000195e-01,1.176246345825045746e-02,2.001184262804074632e-01,-1.467458778454491519e-01
3.980000000000000204e-01,5.415674940491665978e-02,2.293038325606478745e-01,-1.341324391147640793e-01
3.990000000000000213e-01,9.350728991609737195e-02,2.568262277021482465e-01,-1.140395607457960619e-01
4.000000000000000222e-01,1.140007072836030089e-01,2.606561499905296064e-01,-9.662626294513079750e-02
4.010000000000000231e-01,1.573761620253808780e-01,2.609581204851325054e-01,-7.891913342011079580e-02
4.020000000000000240e-01,1.818417348838342884e-01,2.751507495332802811e-01,-6.123485448288856769e-02
4.030000000000000249e-01,2.317938922498808119e-01,2.745595664680532400e-01,-4.529509943187121773e-02
4.040000000000000258e-01,2.482966306288106884e-01,2.583360358086553843e-01,-1.958060673693376788e-02
4.050000000000000266e-01,2.768929383734329286e-01,2.542746137754699487e-01,-3.826046096006012649e-03
4.060000000000000275e-01,2.894134556377197520e-01,2.304756801788203635e-01,2.005315593767556526e-02
4.069999999999999729e-01,3.109443753605898308e-01,2.081528158411188045e-01,4.836543876971505923e-02
4.079999999999999738e-01,2.947984560058236059e-01,2.093870481869592459e-01,8.535307257110220924e-02
4.089999999999999747e-01,3.197329710277736492e-01,1.665889759977812190e-01,8.193248671939068473e-02
4.099999999999999756e-01,3.351465631347612661e-01,1.656746897425981635e-01,1.277667337893748367e-01
4.109999999999999765e-01,3.331609328313743790e-01,1.457502553381556654e-01,1.234963239084141962e-01
4.119999999999999774e-01,3.260033788059850668e-01,1.050325299032154047e-01,1.345578493673750264e-01
4.129999999999999782e-01,3.153103613539434691e-01,9.423931589138533071e-02,1.467304554192772059e-01
4.139999999999999791e-01,2.888196367762965733e-01,5.601724191733856856e-02,1.707612253122347823e-01
4.149999999999999800e-01,3.043479507633140568e-01,4.503543768251725560e-02,1.891475417844168672e-01
4.159999999999999809e-01,2.544940689839592096e-01,6.881555668698147339e-03,1.913100713977264888e-01
4.169999999999999818e-01,2.244254035602789021e-01,-3.768300947165607179e-02,1.990165480275326582e-01
4.179999999999999827e-01,2.178055537930120023e-01,-5.386233207648469939e-02,2.015730354659338031e-01
4.189999999999999836e-01,1.635692361734517042e-01,-1.100698957630037583e-01,1.976015169645863878e-01
4.199999999999999845e-01,1.401489862154853272e-01,-1.338587093950039941e-01,2.048949534318353083e-01
4.209999999999999853e-01,1.155781286185940532e-01,-1.530971530979719497e-01,2.078305791369084721e-01
4.219999999999999862e-01,9.075423321231247675e-02,-1.764317946294493566e-01,1.980072293072778489e-01
4.229999999999999871e-01,2.608556060791542702e-02,-1.894227806321332752e-01,1.686756958055677935e-01
4.239999999999999880e-01,-1.411030402218245786e-02,-2.095519739772278844e-01,1.689660588009734565e-01
4.249999999999999889e-01,-3.346319602061365722e-02,-2.332532491642310135e-01,1.310979052907618181e-01
4.259999999999999898e-01,-8.295285249751890855e-02,-2.497444482188845016e-01,1.260856295957341888e-01
4.269999999999999907e-01,-1.147520375897385231e-01,-2.566670069729891090e-01,1.034011313984580238e-01
4.279999999999999916e-01,-1.364091472117551773e-01,-2.664803634743979632e-01,9.450041853220877974e-02
4.289999999999999925e-01,-1.666045320426506882e-01,-2.699771497953006860e-01,6.622076148384710426e-02
4.299999999999999933e-01,-2.131123755733623226e-01,-2.663826513101609228e-01,4.899246571691948104e-02
4.309999999999999942e-01,-2.349196533302717604e-01,-2.777501908025556410e-01,1.794022353140122331e-02
4.319999999999999951e-01,-2.593431071753255490e-01,-2.539942924477406327e-01,1.416480208214165870e-03
4.329999999999999960e-01,-2.724232838251425259e-01,-2.357670641246344678e-01,-2.306180976268852947e-02
4.339999999999999969e-01,-3.035803686233941034e-01,-2.228148876306584592e-01,-3.849101482721452999e-02
4.349999999999999978e-01,-3.171184779348878990e-01,-2.217459918170048283e-01,-5.121142529386305681e-02
4.359999999999999987e-01,-3.311019942163825336e-01,-2.120010295235054687e-01,-8.603380884211439539e-02
4.369999999999999996e-01,-3.290555283388535424e-01,-1.774160527770299034e-01,-1.021705064840758431e-01
4.380000000000000004e-01,-3.443023054189242038e-01,-1.281820134955845569e-01,-1.290518847415548231e-01
4.390000000000000013e-01,-3.414819686078358618e-01,-9.433792781205088684e-02,-1.391556888621014731e-01
4.400000000000000022e-01,-3.192123588620904839e-01,-1.061827837545575998e-01,-1.460101892800536316e-01
4.410000000000000031e-01,-3.025377766417567393e-01,-5.818002318408590362e-02,-1.724804789770707780e-01
4.420000000000000040e-01,-3.018552332492451806e-01,-2.711637938403228809e-02,-1.880089228611490915e-01
4.430000000000000049e-01,-2.537222823868764965e-01,1.781926803237717308e-02,-1.737958543590538141e-01
4.440000000000000058e-01,-2.214458045905756678e-01,4.640079633188756020e-02,-2.004390856402461785e-01
4.450000000000000067e-01,-2.425550490167821260e-01,6.949404342943747703e-02,-1.992797747691635313e-01
4.460000000000000075e-01,-1.792906536796682049e-01,8.224596734545083776e-02,-1.974384116333467165e-01
4.470000000000000084e-01,-1.516161999474505973e-01,1.252410587466891989e-01,-2.211458586195208520e-01
4.480000000000000093e-01,-1.100875376094550412e-01,1.505062855781144626e-01,-1.750868037902444663e-01
4.490000000000000102e-01,-7.396704177462201657e-02,1.747112618571512177e-01,-2.001048629197174078e-01
4.500000000000000111e-01,-4.541287317918122485e-02,1.876418888039047272e-01,-1.807809521397918118e-01
4.510000000000000120e-01,2.188251582296665745e-03,2.319316622802159722e-01,-1.808523219229526136e-01
4.520000000000000129e-01,1.649428076131064999e-02,2.428355240592150743e-01,-1.456226887901960476e-01
4.530000000000000138e-01,6.200367773230645863e-02,2.360986183218798939e-01,-1.445547051205320344e-01
4.540000000000000147e-01,1.134622619040024788e-01,2.442027801251651087e-01,-1.418247549530165796e-01
4.550000000000000155e-01,1.269850566130157898e-01,2.542392264537021718e-01,-9.100102479451170623e-02
4.560000000000000164e-01,1.609931682294618582e-01,2.823070474305885980e-01,-6.851980372073855630e-02
4.570000000000000173e-01,2.003982797027738516e-01,2.634246537437992530e-01,-8.553352767745239782e-02
4.580000000000000182e-01,2.362724025450385346e-01,2.638522087485424827e-01,-2.347765710447099682e-02
4.590000000000000191e-01,2.649949044166035050e-01,2.526398717326321930e-01,-5.468857425635137957e-03
4.600000000000000200e-01,2.863886668771231658e-01,2.397367659781124982e-01,-3.530796325171399030e-03
4.610000000000000209e-01,3.121954978025486271e-01,2.243990237965333145e-01,4.081287437350922948e-02
4.620000000000000218e-01,3.145867972649756261e-01,2.039604170272883987e-01,2.980569009742499095e-02
4.630000000000000226e-01,3.254574442268931000e-01,1.587205087523875791e-01,7.849923706414164981e-02
4.640000000000000235e-01,3.166847124368313282e-01,1.655489897275601308e-01,8.998540436403600074e-02
4.650000000000000244e-01,3.192272966884964203e-01,1.324108691056560538e-01,1.210512805041617651e-01
4.660000000000000253e-01,3.205908216675497635e-01,1.233906683761699097e-01,1.328911522150152402e-01
4.670000000000000262e-01,3.210151209009926010e-01,6.513469746211640599e-02,1.366290139466097564e-01
4.680000000000000271e-01,3.164658429806302964e-01,7.300705193702192175e-02,1.652865534200190778e-01
4.689999999999999725e-01,2.873893052919902491e-01,1.986830326747410919e-02,1.661764429309740554e-01
4.699999999999999734e-01,2.548874182080313466e-01,-9.638720778593228011e-03,1.753681739821792707e-01
4.709999999999999742e-01,2.600778173158970197e-01,-3.720516287835296670e-02,2.011694718871384624e-01
4.719999999999999751e-01,2.249793091890723573e-01,-6.605688769737247390e-02,1.958312178898825306e-01
4.729999999999999760e-01,2.079461221272036198e-01,-8.819489154858888014e-02,1.883816632709392203e-01
4.739999999999999769e-01,1.728904692543703214e-01,-1.253576796647861702e-01,1.853568413934209569e-01
4.749999999999999778e-01,1.309925330047083114e-01,-1.503047349089315365e-01,1.805065258261945027e-01
4.759999999999999787e-01,8.696325354833374377e-02,-1.571435708243636709e-01,1.818159171316191258e-01
4.769999999999999796e-01,4.634061835812609831e-02,-1.917989989364511372e-01,1.873450096545637711e-01
4.779999999999999805e-01,1.110845736436794767e-02,-2.107633592545537782e-01,1.781571459449146633e-01
4.789999999999999813e-01,-2.639197940718392837e-02,-2.203765827649907250e-01,1.635422845918665935e-01
4.799999999999999822e-01,-7.295024174691623620e-02,-2.447325227848894114e-01,1.541040376763380126e-01
4.809999999999999831e-01,-9.716438857972324594e-02,-2.481470823880042864e-01,1.378230187296183851e-01
4.819999999999999840e-01,-1.331837020208649913e-01,-2.570719511744379848e-01,1.085982042607844256e-01
4.829999999999999849e-01,-1.561511018554754548e-01,-2.532134908014604946e-01,1.049157011477333118e-01
4.839999999999999858e-01,-1.835574110505318324e-01,-2.777791438511501565e-01,6.895801634821591142e-02
4.849999999999999867e-01,-2.294142574349524177e-01,-2.598150305626528711e-01,5.744507980348238091e-02
4.859999999999999876e-01,-2.254969871496699529e-01,-2.409783685550040688e-01,2.157542257573086264e-02
4.869999999999999885e-01,-2.792565938407106096e-01,-2.148367465689541289e-01,-2.118398194603656175e-03
4.879999999999999893e-01,-3.030944216162423377e-01,-2.098737900589887628e-01,-1.320608173888680563e-02
4.889999999999999902e-01,-3.039052268475337937e-01,-1.992246954790789226e-01,-5.392144209053711251e-02
4.899999999999999911e-01,-3.184694199702545192e-01,-2.022473636009181897e-01,-5.071780230841320403e-02
4.909999999999999920e-01,-3.293576969104748398e-01,-1.622187708363477809e-01,-9.252964342137180720e-02
4.919999999999999929e-01,-3.196780172192602021e-01,-1.313944551449989784e-01,-8.414652250534077060e-02
4.929999999999999938e-01,-3.359271868009929274e-01,-1.193519814975025212e-01,-1.299910650160014391e-01
4.939999999999999947e-01,-3.314237063033543262e-01,-6.243640341167050467e-02,-1.310503663136360075e-01
4.949999999999999956e-01,-3.150487309698246086e-01,-4.792829362735129967e-02,-1.422616133274188233e-01
4.959999999999999964e-01,-3.076039887647317728e-01,-3.398317284107141983e-02,-1.646036702162900212e-01
4.969999999999999973e-01,-2.776762918119826673e-01,3.832414405813403414e-03,-1.581747994084243825e-01
4.979999999999999982e-01,-2.637919837194276917e-01,2.767874455019152941e-02,-1.977742132426326682e-01
4.989999999999999991e-01,-2.294170781873942633e-01,5.566425192701120184e-02,-1.921580895850170945e-01
5.000000000000000000e-01,-2.119896441078843174e-01,1.133230265285431887e-01,-2.095468366721968401e-01
5.010000000000000009e-01,-1.694043875072054062e-01,1.148033000258890796e-01,-2.008863416555887460e-01
5.020000000000000018e-01,-1.395812585543170503e-01,1.291830065909617964e-01,-2.034873784994835344e-01
5.030000000000000027e-01,-9.710424975243468759e-02,1.805614503322513775e-01,-1.910699943258119815e-01
5.040000000000000036e-01,-8.223714944254352510e-02,2.071851678413422215e-01,-1.933913630476772061e-01
5.050000000000000044e-01,-2.422179471822474492e-02,2.207930691833183690e-01,-1.727564561636346641e-01
5.060000000000000053e-01,1.351913320180687939e-02,2.347155519651202560e-01,-1.527923467254224676e-01
5.070000000000000062e-01,5.470697746530168298e-02,2.490879123955557495e-01,-1.392654439359870266e-01
5.080000000000000071e-01,9.549731014760964865e-02,2.496344321276248723e-01,-1.360709636157828584e-01
5.090000000000000080e-01,1.263071507950670191e-01,2.585870750656121819e-01,-1.078225178131512613e-01
5.100000000000000089e-01,1.447987495539787561e-01,2.594904701864421681e-01,-1.183343206405921555e-01
5.110000000000000098e-01,2.038567608994818481e-01,2.440048106177598042e-01,-6.047413897472721234e-02
5.120000000000000107e-01,2.325019757289340516e-01,2.511048531087262670e-01,-7.164871474908132698e-02
5.130000000000000115e-01,2.544442521791733802e-01,2.442162069913104694e-01,-3.519890298031064235e-02
5.140000000000000124e-01,2.609922674530675835e-01,2.397148234563425406e-01,-9.582136874823397529e-03
5.150000000000000133e-01,2.918823552704704061e-01,2.113776248090222520e-01,9.922269475138887490e-03
5.160000000000000142e-01,3.179347487942706940e-01,2.033117423425948034e-01,2.283673111294367078e-02
5.170000000000000151e-01,3.379510222203050973e-01,1.871372703186952313e-01,4.122914176051543228e-02
5.180000000000000160e-01,3.215393450584225765e-01,1.557070428375650351e-01,7.805601695956225494e-02
5.190000000000000169e-01,3.503529853968066488e-01,1.367531693806889048e-01,9.015428461247969316e-02
5.200000000000000178e-01,3.421732457438696473e-01,1.092589766438535059e-01,1.093276592839521055e-01
5.210000000000000187e-01,3.320528974039044234e-01,8.106666994278814709e-02,1.289672896314210948e-01
5.220000000000000195e-01,3.040945889911513267e-01,4.952723920692420068e-02,1.349000555041177662e-01
5.230000000000000204e-01,3.009684766961584490e-01,3.030281517124309640e-02,1.423705257556381609e-01
5.240000000000000213e-01,2.912709061327221072e-01,2.228366487335475214e-03,1.856734095784289829e-01
5.250000000000000222e-01,2.657470963205231795e-01,-2.670421582935436980e-02,1.677729912561142234e-01
5.260000000000000231e-01,2.361359019051131047e-01,-6.209458661049726408e-02,1.789702503368597597e-01
5.270000000000000240e-01,2.237189952995743136e-01,-1.003657005637955124e-01,1.885050820865858956e-01
5.280000000000000249e-01,1.885291267052109920e-01,-1.230717858902462408e-01,2.019364499697457738e-01
5.290000000000000258e-01,1.440768792881050031e-01,-1.273562857473103660e-01,1.898209857210347296e-01
5.300000000000000266e-01,1.273166678777509497e-01,-1.594696917759225729e-01,2.076149951167057806e-01
5.310000000000000275e-01,9.185149212338200586e-02,-1.818704374029685156e-01,1.978390031234540103e-01
5.320000000000000284e-01,4.781035804103137693e-02,-2.155329661165215904e-01,1.824278871287614567e-01
5.330000000000000293e-01,-2.710334965003157685e-03,-2.381063549176448690e-01,1.590732267686072177e-01
5.340000000000000302e-01,-3.047807725404963822e-02,-2.383298029727479173e-01,1.676968781948114384e-01
5.350000000000000311e-01,-1.060865595619106538e-01,-2.590880165873366558e-01,1.412326107540438913e-01
5.360000000000000320e-01,-1.047062844237573037e-01,-2.593324849572288815e-01,1.419642677369907791e-01
5.370000000000000329e-01,-1.692479457349780059e-01,-2.662343006811627721e-01,1.115460758756200432e-01
5.380000000000000338e-01,-2.026472506226938974e-01,-2.488395684613579073e-01,8.737680327708029215e-02
5.390000000000000346e-01,-2.136103714221238570e-01,-2.569001352333518673e-01,8.407020295315265068e-02
5.400000000000000355e-01,-2.318567662387209516e-01,-2.415550463275700499e-01,5.015295417227998154e-02
5.410000000000000364e-01,-2.707136139782315154e-01,-2.470044162691150125e-01,4.776498528591427428e-02
5.420000000000000373e-01,-3.008626989720311617e-01,-2.086914033885858277e-01,3.887444340104046370e-03
5.430000000000000382e-01,-2.838451926569689476e-01,-1.972556911240727351e-01,-3.126762916157665995e-02
5.440000000000000391e-01,-3.092978673168409465e-01,-1.788564819028182484e-01,-4.193170469869522687e-02
5.450000000000000400e-01,-3.101764149041324470e-01,-1.414902958851222969e-01,-6.054109283437062589e-02
5.460000000000000409e-01,-3.233612846386765827e-01,-1.631505915658742756e-01,-8.350235153879487227e-02
5.470000000000000417e-01,-3.441504591663359647e-01,-1.173438376293089169e-01,-9.859661083528878378e-02
5.480000000000000426e-01,-3.229258475116631444e-01,-9.047453674316099925e-02,-1.133634777193047588e-01
5.490000000000000435e-01,-3.099369072280127035e-01,-6.172502124501264009e-02,-1.491348811354142045e-01
5.500000000000000444e-01,-3.037633080098346983e-01,-1.554837183924610323e-02,-1.629753102970056544e-01
5.510000000000000453e-01,-2.746970949699318876e-01,-2.176833717095917457e-04,-1.769706206076139265e-01
5.520000000000000462e-01,-2.624646005735052356e-01,5.112004116493953920e-02,-1.713491928302098011e-01
5.530000000000000471e-01,-2.469279418144073035e-01,4.831807262661504121e-02,-1.937145602581250015e-01
5.540000000000000480e-01,-2.230431989521825809e-01,9.162609910898662779e-02,-1.826240473213575910e-01
5.550000000000000488e-01,-1.892353178522418189e-01,1.326350576012823301e-01,-2.041433422291069888e-01
5.560000000000000497e-01,-1.420217730531169453e-01,1.710999218966289814e-01,-1.953798400618599329e-01
5.570000000000000506e-01,-1.136413264219802849e-01,1.944118397085251582e-01,-1.909788014110311016e-01
5.580000000000000515e-01,-7.575110546887635354e-02,2.008766090191306253e-01,-1.930084828339737602e-01
5.590000000000000524e-01,-3.473640143912313377e-02,2.232500335280251103e-01,-1.847913362059406539e-01
5.600000000000000533e-01,-2.323011328588597477e-02,2.310884460193244616e-01,-1.678787574479547740e-01
5.610000000000000542e-01,2.722277368186078877e-02,2.502384311854836119e-01,-1.560577043582235257e-01
5.620000000000000551e-01,8.638705120607319266e-02,2.483978278568960141e-01,-1.625786576375758963e-01
5.629999999999999449e-01,1.028579555370226356e-01,2.703218737312479414e-01,-1.509960493092388778e-01
5.639999999999999458e-01,1.536085068286691946e-01,2.635528432112813624e-01,-1.149068450815488307e-01
5.649999999999999467e-01,1.768028525054124722e-01,2.796721993689970098e-01,-9.507850708036323650e-02
5.659999999999999476e-01,2.041295858817968878e-01,2.424152522642915863e-01,-7.324988071586947813e-02
5.669999999999999485e-01,2.326860991794787725e-01,2.681030009706911743e-01,-5.230302892759379485e-02
5.679999999999999494e-01,2.538947769287682177e-01,2.404237897441462990e-01,-5.593267228583958389e-02
5.689999999999999503e-01,2.696248661077370046e-01,2.125480173264218675e-01,-2.328713884404441312e-02
5.699999999999999512e-01,2.967060301220693641e-01,2.053180466809843563e-01,6.848619894943318472e-03
5.709999999999999520e-01,3.007788895337100143e-01,1.869975453055500447e-01,3.382850664303348187e-02
5.719999999999999529e-01,3.083955284052217749e-01,1.616839075486052324e-01,4.564986157052462745e-02
5.729999999999999538e-01,3.157147792988517776e-01,1.468228105442710429e-01,8.766096770505121816e-02
5.739999999999999547e-01,3.518594905811432416e-01,1.011361335894805230e-01,9.482378357636285504e-02
5.749999999999999556e-01,3.270348056859092023e-01,8.021547914610459296e-02,9.953480616667223502e-02
5.759999999999999565e-01,3.255053934931511628e-01,6.760426572743481743e-02,1.419703788032604663e-01
5.769999999999999574e-01,2.876735637294679515e-01,1.698063252152305982e-02,1.491958285925590044e-01
5.779999999999999583e-01,3.148234138216044475e-01,-7.627003646483242194e-03,1.618125709865681494e-01
5.789999999999999591e-01,2.606968100074211203e-01,-4.373745975069534553e-02,1.645842473629205160e-01
5.799999999999999600e-01,2.512430164100777907e-01,-8.090042912230259453e-02,1.840293551073584333e-01
5.809999999999999609e-01,2.209622061179839503e-01,-1.119215498907778078e-01,1.866651111906880711e-01
5.819999999999999618e-01,1.993942167913786701e-01,-1.196051299525077299e-01,1.860738806745705909e-01
5.829999999999999627e-01,1.686065233006641406e-01,-1.572532180760060905e-01,2.053792863595212681e-01
5.839999999999999636e-01,9.715249687809927870e-02,-1.758399235215492018e-01,2.076123470109086655e-01
5.849999999999999645e-01,8.951202201193873831e-02,-1.982069694984061048e-01,1.937817401306038412e-01
5.859999999999999654e-01,5.402591124197850952e-02,-2.157633789750377507e-01,1.734456478305795302e-01
5.869999999999999662e-01,2.208217767700064449e-02,-2.258276563954325078e-01,1.834484228033625153e-01
5.879999999999999671e-01,-1.828183161523441735e-02,-2.421386540485860328e-01,1.738632325160104353e-01
5.889999999999999680e-01,-6.504177094198093645e-02,-2.465958600782136578e-01,1.678998849562036433e-01
5.899999999999999689e-01,-8.599308314420271715e-02,-2.439499154006640191e-01,1.494380090665347882e-01
5.909999999999999698e-01,-1.328381311257517405e-01,-2.584534200923598313e-01,1.143280645110798383e-01
5.919999999999999707e-01,-1.753539320577602867e-01,-2.738446886973299188e-01,1.130052530404021399e-01
5.929999999999999716e-01,-1.883952429053923072e-01,-2.747229760697292300e-01,1.034708299435834755e-01
5.939999999999999725e-01,-2.269185906309126310e-01,-2.644370983359131122e-01,5.038275428326243616e-02
5.949999999999999734e-01,-2.333720617907288075e-01,-2.375067062677304330e-01,5.214537717416967838e-02
5.959999999999999742e-01,-2.721519597660594370e-01,-2.377629905060640592e-01,4.346378705985123186e-02
5.969999999999999751e-01,-2.844100383659164399e-01,-2.153853264886893826e-01,1.274282830482170075e-03
5.979999999999999760e-01,-3.115322564392133953e-01,-1.794236927703549145e-01,-2.381322826180400781e-02
5.989999999999999769e-01,-3.090226944512933227e-01,-1.647751421074770128e-01,-4.359432330998543742e-02
5.999999999999999778e-01,-3.369945550782894039e-01,-1.352695008089494777e-01,-5.884101337158396255e-02
6.009999999999999787e-01,-3.325876953807019309e-01,-1.102195989194281744e-01,-8.770547085449582891e-02
6.019999999999999796e-01,-3.378004049037386936e-01,-8.364955731113357662e-02,-1.207752544690800789e-01
6.029999999999999805e-01,-3.071493556716376472e-01,-5.448607090325582186e-02,-1.051543438018612692e-01
6.039999999999999813e-01,-3.269717441230723942e-01,-2.853608907823161969e-02,-1.308641747494044549e-01
6.049999999999999822e-01,-2.926228609522534274e-01,2.007368066844018167e-02,-1.403300887138172470e-01
6.059999999999999831e-01,-2.661636204050442100e-01,3.806061167615261420e-02,-1.625148920601248714e-01
6.069999999999999840e-01,-2.649756295724650101e-01,6.371969122228318683e-02,-1.899044914859860100e-01
6.079999999999999849e-01,-2.317697946321679858e-01,8.901325636802139007e-02,-1.904352283330317530e-01
6.089999999999999858e-01,-1.882627925578711781e-01,1.244694987913785994e-01,-1.875251915801290636e-01
6.099999999999999867e-01,-1.831040585466351123e-01,1.493034123324385176e-01,-1.846642786662049673e-01
6.109999999999999876e-01,-1.219987627308747880e-01,1.667809068593077149e-01,-2.170811943308611214e-01
6.119999999999999885e-01,-9.686815327925921149e-02,2.063351243704993065e-01,-1.821096948050451858e-01
6.129999999999999893e-01,-6.425869757248110770e-02,2.106261549860925508e-01,-1.900460224066486126e-01
6.139999999999999902e-01,-3.299028982856379993e-02,2.271180888308229340e-01,-1.939328067766866726e-01
6.149999999999999911e-01,-5.584683364040348439e-04,2.561968450161826727e-01,-1.984103924707098232e-01
6.159999999999999920e-01,3.261605748732227666e-02,2.538030607046800613e-01,-1.780933243676590394e-01
6.169999999999999929e-01,1.000096160820038854e-01,2.598536391938542911e-01,-1.566864563760242135e-01
6.179999999999999938e-01,1.284335566022271613e-01,2.679302318610262135e-01,-1.453761703366312774e-01
6.189999999999999947e-01,1.579460111773026698e-01,2.730185350998822202e-01,-1.258319958821575990e-01
6.199999999999999956e-01,1.796298545337886021e-01,2.527628523796585092e-01,-7.566807356575491750e-02
6.209999999999999964e-01,2.215893978325040869e-01,2.614262147276547599e-01,-8.078012448272400836e-02
6.219999999999999973e-01,2.402209250649407490e-01,2.368017932299422978e-01,-5.469173533321430858e-02
6.229999999999999982e-01,2.736346045160071849e-01,2.230121281180714732e-01,-5.140249277895304197e-02
6.239999999999999991e-01,2.773448212758469200e-01,1.939401184157096281e-01,-3.336839715416598656e-03
6.250000000000000000e-01,3.001587452864176719e-01,1.928784725785279708e-01,7.110675647469867980e-03
6.260000000000000009e-01,3.204420737858242885e-01,1.540339588998591858e-01,2.778604724940426235e-02
6.270000000000000018e-01,3.421783264255141566e-01,1.357231660249714478e-01,4.566084689090602056e-02
6.280000000000000027e-01,3.314956998103709696e-01,1.124786844305372124e-01,7.198921613248779328e-02
6.290000000000000036e-01,3.199312657237096680e-01,8.071583786283660633e-02,8.210053337454595312e-02
6.300000000000000044e-01,3.417378506297051310e-01,4.499016457123244245e-02,1.295950666315635325e-01
6.310000000000000053e-01,3.124962076268174016e-01,2.480651246820000586e-02,1.260748856087105518e-01
6.320000000000000062e-01,2.957230977335352784e-01,-1.059338248891314276e-02,1.543619741527168521e-01
6.330000000000000071e-01,2.889359759772945346e-01,-2.640183128100642013e-02,1.731225684168617163e-01
6.340000000000000080e-01,2.558631545393393325e-01,-7.779981180680201058e-02,1.714083855560538938e-01
6.350000000000000089e-01,2.302709465485017482e-01,-1.211884833305577336e-01,1.804754588787241543e-01
6.360000000000000098e-01,2.020781515725348643e-01,-1.348118185128412971e-01,1.877096103614870060e-01
6.370000000000000107e-01,1.950559431260480703e-01,-1.570398266922677921e-01,1.853204118472832340e-01
6.380000000000000115e-01,1.459305293313362673e-01,-1.692094200880916444e-01,1.958586504021295194e-01
6.390000000000000124e-01,1.124589104864852779e-01,-2.135577952445393002e-01,1.880514749572903266e-01
6.400000000000000133e-01,6.787625550352215098e-02,-2.030002943923590042e-01,2.087925423695426441e-01
6.410000000000000142e-01,4.706993199986312520e-02,-2.197646237384947576e-01,1.803964578487532444e-01
6.420000000000000151e-01,-1.610807885479006649e-02,-2.353584345524629695e-01,1.987282905344571748e-01
6.430000000000000160e-01,-5.010309973752270774e-02,-2.646749139023847341e-01,1.724362158511865140e-01
6.440000000000000169e-01,-7.827600632861279883e-02,-2.610234395045425426e-01,1.485267485874911253e-01
6.450000000000000178e-01,-1.122827723505814834e-01,-2.677190626332492385e-01,1.472869493870306579e-01
6.460000000000000187e-01,-1.560326753795181765e-01,-2.525332128170217905e-01,1.437274081671846282e-01
6.470000000000000195e-01,-1.868814363023582059e-01,-2.507121308307243002e-01,1.189540571337559388e-01
6.480000000000000204e-01,-1.995664760026014117e-01,-2.323847133203021664e-01,8.899448333280800261e-02
6.490000000000000213e-01,-2.384930258201844178e-01,-2.412408637993587734e-01,6.787457235723333426e-02
6.500000000000000222e-01,-2.583330660148449032e-01,-2.274416489634957794e-01,6.510861293905297054e-02
6.510000000000000231e-01,-2.888024213198582824e-01,-1.911689890365676492e-01,5.181958132905409992e-02
6.520000000000000240e-01,-3.085828175727178824e-01,-1.766701733764562687e-01,5.136579594065686675e-04
6.530000000000000249e-01,-3.230849522283191777e-01,-1.664939739749024261e-01,2.150309639887014457e-03
6.540000000000000258e-01,-3.259625163822602589e-01,-1.457715514591882144e-01,-3.344917939861891815e-02
6.550000000000000266e-01,-3.307505065940640199e-01,-9.927468467364360116e-02,-6.365548448173380391e-02
6.560000000000000275e-01,-3.154521329147463859e-01,-8.812749178787185333e-02,-6.499059811438559486e-02
6.570000000000000284e-01,-3.304319173244784635e-01,-5.917887102764472079e-02,-1.161712733028272687e-01
6.580000000000000293e-01,-3.384904440289790983e-01,-1.592403445815578772e-02,-1.374219779158168675e-01
6.590000000000000302e-01,-3.114048415181854268e-01,1.723821746441802846e-02,-1.403576345991110752e-01
6.600000000000000311e-01,-2.827522917868090513e-01,1.504841560476795174e-02,-1.478132891133237814e-01
6.610000000000000320e-01,-2.724317359964672502e-01,7.825656250900756006e-02,-1.757981338692953255e-01
6.620000000000000329e-01,-2.106854548418059248e-01,9.942061567653739940e-02,-1.594548519639653328e-01
6.630000000000000338e-01,-1.980022496206563232e-01,1.247661718222649735e-01,-1.938105485394771010e-01
6.640000000000000346e-01,-1.801475355227764585e-01,1.622430347455947330e-01,-1.940110713795750730e-01
6.650000000000000355e-01,-1.522156946605314753e-01,1.744609175183109984e-01,-2.042261513179887689e-01
6.660000000000000364e-01,-1.120488076666445038e-01,2.010874954426679906e-01,-2.161971790440528063e-01
6.670000000000000373e-01,-7.103633762362185355e-02,2.267741815685018203e-01,-2.133512864801477282e-01
6.680000000000000382e-01,-5.476297571022752803e-02,2.423960901822442837e-01,-1.903232060819980975e-01
6.690000000000000391e-01,-8.035218152661401103e-03,2.599365368433030898e-01,-1.998561853702045810e-01
6.700000000000000400e-01,3.912240839933172482e-02,2.679046593483101479e-01,-1.925710973975578444e-01
6.710000000000000409e-01,5.191128116159358930e-02,2.703593931291410901e-01,-1.703354718556080172e-01
6.720000000000000417e-01,1.045467843967574917e-01,2.435533910668676860e-01,-1.504673697561981771e-01
6.730000000000000426e-01,1.343824545033211748e-01,2.584490594926774354e-01,-1.403923544653772892e-01
6.740000000000000435e-01,1.994499514991140143e-01,2.420387581269729527e-01,-1.333858029345823260e-01
6.750000000000000444e-01,2.022024398232941667e-01,2.403683169689401211e-01,-1.104596943585015312e-01
6.760000000000000453e-01,2.371175807379616307e-01,2.360840433927227366e-01,-7.735895082232389919e-02
6.770000000000000462e-01,2.632491698446289274e-01,2.129726617615582129e-01,-7.785222306813294191e-02
6.780000000000000471e-01,2.964977102648919671e-01,2.175227406986856848e-01,-4.809096056060772201e-02
6.790000000000000480e-01,3.043821265713985147e-01,1.896389848007136447e-01,-2.679883471510687010e-02
6.800000000000000488e-01,2.905949382149297100e-01,1.748960703571322828e-01,9.636221300414408563e-04
6.810000000000000497e-01,3.112244145680508334e-01,1.311509292730192455e-01,1.122239326334081334e-02
6.820000000000000506e-01,3.364093604963374062e-01,1.001135544010107875e-01,4.000014764670756229e-02
6.830000000000000515e-01,3.385052195509865025e-01,8.603130429991229233e-02,6.614565046917843250e-02
6.840000000000000524e-01,3.367268795047148600e-01,6.608908733318372142e-02,8.776884461796892467e-02
6.850000000000000533e-01,3.256044832223342622e-01,1.657914591580143468e-02,1.110042497482407881e-01
6.860000000000000542e-01,3.103132504876240372e-01,-8.322597987003249251e-03,1.450255164884457215e-01
6.870000000000000551e-01,2.990759266380509929e-01,-3.697507574237134109e-02,1.535445724332006046e-01
6.879999999999999449e-01,2.777100579997256458e-01,-7.251910614165404945e-02,1.390889707803311115e-01
6.889999999999999458e-01,2.396869095171917097e-01,-9.883101490783531562e-02,1.567759699783075056e-01
6.899999999999999467e-01,2.216024124118411709e-01,-1.297838034168032340e-01,1.788646415015023861e-01
6.909999999999999476e-01,2.059001966574807441e-01,-1.417943892708348197e-01,1.735009839745381421e-01
6.919999999999999485e-01,1.535001233463398895e-01,-1.714821849510546337e-01,1.775760964442842649e-01
6.929999999999999494e-01,1.132147285877339593e-01,-2.193971340834418859e-01,1.944135831931338432e-01
6.939999999999999503e-01,9.844765095901630847e-02,-2.226462129524685862e-01,2.041834179598386589e-01
6.949999999999999512e-01,4.907569074531781955e-02,-2.247011107336253921e-01,2.001148663816876561e-01
6.959999999999999520e-01,2.626742743507700512e-02,-2.325535892042129016e-01,1.824917886861815997e-01
6.969999999999999529e-01,-3.715506997629925562e-02,-2.634648099597248216e-01,1.843066242057314619e-01
6.979999999999999538e-01,-5.990787251788141227e-02,-2.484885566250277233e-01,1.777299584412890820e-01
6.989999999999999547e-01,-9.321633916178785617e-02,-2.630761843414111678e-01,1.551004526625500701e-01
6.999999999999999556e-01,-1.262207785152791584e-01,-2.586077342259110456e-01,1.460672920465644065e-01
7.009999999999999565e-01,-1.493758076964850079e-01,-2.573530145519477008e-01,1.472034436215044206e-01
7.019999999999999574e-01,-1.977978410208172944e-01,-2.425283893063576168e-01,1.290949991625400528e-01
7.029999999999999583e-01,-2.290050660865673438e-01,-2.207438543255706986e-01,9.593357497462429162e-02
7.039999999999999591e-01,-2.359184298026568705e-01,-2.262018441637762278e-01,7.089154706369978076e-02
7.049999999999999600e-01,-2.805038042308396484e-01,-2.113271272162758063e-01,4.983130595470819379e-02
7.059999999999999609e-01,-3.000742649065770151e-01,-1.710119238818558762e-01,1.722333721545069724e-02
7.069999999999999618e-01,-3.159014325988213634e-01,-1.632793811166703968e-01,-4.421885145846361428e-03
7.079999999999999627e-01,-3.223514937091909727e-01,-1.450042298887435910e-01,-1.453532494352403719e-02
7.089999999999999636e-01,-3.344684945598767056e-01,-1.051907568310920943e-01,-4.596684241706537610e-02
7.099999999999999645e-01,-3.275733155744056657e-01,-8.064781734701530203e-02,-3.963431190558382167e-02
7.109999999999999654e-01,-3.242175106091650383e-01,-5.639266510271816885e-02,-7.996560060936845626e-02
7.119999999999999662e-01,-3.294345384598881266e-01,-3.069265616149771322e-02,-9.668157240909289185e-02
7.129999999999999671e-01,-3.113806081502207834e-01,2.283042653323500565e-02,-1.208664139755057515e-01
7.139999999999999680e-01,-2.857348484603554617e-01,4.962279916639744659e-02,-1.383140362684912583e-01
7.149999999999999689e-01,-2.748656157201825878e-01,6.362993134111716298e-02,-1.514854782662529431e-01
7.159999999999999698e-01,-2.467037217263394200e-01,9.292223771209442984e-02,-1.779939232822474737e-01
7.169999999999999707e-01,-2.157781639770495197e-01,1.244539194483180455e-01,-1.822412892810694740e-01
7.179999999999999716e-01,-2.048035884775311066e-01,1.516854968729832998e-01,-1.816444509780403838e-01
7.189999999999999725e-01,-1.611778050534845297e-01,1.989495312216946477e-01,-1.982860922126649939e-01
7.199999999999999734e-01,-1.296653305810369916e-01,1.990625775103118389e-01,-1.982375173908266508e-01
7.209999999999999742e-01,-1.095980388657515764e-01,2.127562214465589796e-01,-1.797622326916034630e-01
7.219999999999999751e-01,-7.119199213509171120e-02,2.280524324219749266e-01,-1.936954110175256871e-01
7.229999999999999760e-01,-2.084588301952195258e-02,2.389824351627694299e-01,-1.908508523628523745e-01
7.239999999999999769e-01,1.122096687401534336e-02,2.618324217204950344e-01,-1.813227299514047208e-01
7.249999999999999778e-01,5.622431756375725898e-02,2.547655570829318039e-01,-1.795322783805871347e-01
7.259999999999999787e-01,6.516562811506658448e-02,2.590703151978534513e-01,-1.676074383178381977e-01
7.269999999999999796e-01,1.157231889441993622e-01,2.645383446572986963e-01,-1.535784459515702471e-01
7.279999999999999805e-01,1.633774422141260618e-01,2.561712228916218637e-01,-1.514913200715919672e-01
7.289999999999999813e-01,1.672754952243649951e-01,2.368292443411484927e-01,-1.231480351354139469e-01
7.299999999999999822e-01,2.104773091336944180e-01,2.455476904212134381e-01,-8.370491440146932138e-02
7.309999999999999831e-01,2.420705503016805371e-01,2.094111154574945510e-01,-8.397290242011194727e-02
7.319999999999999840e-01,2.827393930846669456e-01,2.031432381773147777e-01,-5.063326081891280500e-02
7.329999999999999849e-01,2.805224603293458574e-01,1.955585903574687812e-01,-3.247326760387110600e-02
7.339999999999999858e-01,3.068341039566568895e-01,1.733424413615616000e-01,-1.929405248489641719e-02
7.349999999999999867e-01,3.037679925340220910e-01,1.275945691455036279e-01,1.163557826136257627e-02
7.359999999999999876e-01,3.180583672401564033e-01,1.149291311945707800e-01,1.515496007655605694e-02
7.369999999999999885e-01,3.220385847403978707e-01,9.532606314736159769e-02,3.624237487507338262e-02
7.379999999999999893e-01,3.083508630585939381e-01,5.223365607721416198e-02,5.702526660557778737e-02
7.389999999999999902e-01,3.223978817395115049e-01,1.331610960625426165e-02,9.684447982529512111e-02
7.399999999999999911e-01,2.846532775292153206e-01,-2.589368639356670956e-02,1.167335840907837985e-01
7.409999999999999920e-01,2.991746053705223174e-01,-5.381915426398307251e-02,1.405603460566575147e-01
7.419999999999999929e-01,2.867507541539862648e-01,-5.980240232802809530e-02,1.548770864772600619e-01
7.429999999999999938e-01,2.502675767950597319e-01,-9.842715091856489573e-02,1.581788056504519757e-01
7.439999999999999947e-01,2.401407098020789110e-01,-1.257487453510018893e-01,1.679763766714764683e-01
7.449999999999999956e-01,1.965495607326237515e-01,-1.634727830973458640e-01,1.746958886940476463e-01
7.459999999999999964e-01,1.783612898843117134e-01,-1.872457987194020013e-01,1.892595565578897299e-01
7.469999999999999973e-01,1.320020777300030812e-01,-1.892601545213596914e-01,2.096095863085702116e-01
7.479999999999999982e-01,1.016224038650679340e-01,-2.117818445552251960e-01,2.044565231805315075e-01
7.489999999999999991e-01,9.026746735834356716e-02,-2.410823509979822532e-01,1.865961926380216018e-01
7.500000000000000000e-01,4.672185570170869773e-02,-2.495913023741424264e-01,2.012118354093723749e-01
7.510000000000000009e-01,-1.725225901842450740e-02,-2.618417029336649882e-01,1.984413546257191574e-01
7.520000000000000018e-01,-5.695655122932045955e-02,-2.669230332640010195e-01,1.900524844883686448e-01
7.530000000000000027e-01,-9.126864600423147122e-02,-2.734480735982557920e-01,1.846824871546120239e-01
7.540000000000000036e-01,-1.066612684853683463e-01,-2.738312647183457904e-01,1.598330464236939752e-01
7.550000000000000044e-01,-1.485177310839160825e-01,-2.591975978049753659e-01,1.663608941284327181e-01
7.560000000000000053e-01,-1.938161495625871367e-01,-2.548139649787683481e-01,1.338838100627380012e-01
7.570000000000000062e-01,-2.146313657134659159e-01,-2.341030693081458669e-01,1.089518223445515160e-01
7.580000000000000071e-01,-2.263258449426040209e-01,-2.196762499143772029e-01,1.008852114508744791e-01
7.590000000000000080e-01,-2.771743938249715544e-01,-1.935151860656683931e-01,5.829154506609242337e-02
7.600000000000000089e-01,-2.784506249929178390e-01,-1.719513131059095812e-01,7.295688708507923337e-02
7.610000000000000098e-01,-3.057427529355248308e-01,-1.442730663617533271e-01,2.895272228784162225e-02
7.620000000000000107e-01,-3.000063266458334321e-01,-1.370775023884950872e-01,1.262630271952759446e-02
7.630000000000000115e-01,-3.119751910642404868e-01,-9.958558596233445248e-02,-5.128716042842082490e-03
7.640000000000000124e-01,-3.103427475476631670e-01,-7.943822633876881922e-02,-2.925624640571613047e-02
7.650000000000000133e-01,-3.342688704828644108e-01,-4.168631798829477986e-02,-4.592733712141502944e-02
7.660000000000000142e-01,-3.376581027545415004e-01,-1.646955054538654442e-02,-8.013786733973747578e-02
7.670000000000000151e-01,-2.999762620846130878e-01,3.830771155150083061e-03,-9.486643125500875129e-02
7.680000000000000160e-01,-2.919229980181604067e-01,3.980409489491941455e-02,-9.805722135702964193e-02
7.690000000000000169e-01,-2.964693155231230004e-01,7.865399215526126808e-02,-1.282355466577735914e-01
7.700000000000000178e-01,-2.735253192351253526e-01,7.299066818549494740e-02,-1.560796071400017415e-01
7.710000000000000187e-01,-2.546012935416302470e-01,1.471325107478325678e-01,-1.721848615359502233e-01
7.720000000000000195e-01,-2.141898849522126114e-01,1.700821132288125592e-01,-1.819540692986544583e-01
7.730000000000000204e-01,-1.940154192172149072e-01,1.903730559768398722e-01,-1.726648644332899052e-01
7.740000000000000213e-01,-1.406502229148817451e-01,1.927998708460273991e-01,-1.969267780721346284e-01
7.750000000000000222e-01,-1.284831014317411313e-01,2.250701867055845129e-01,-2.045631246819064608e-01
7.760000000000000231e-01,-6.295871059642754730e-02,2.411807610531946922e-01,-2.069714573409283942e-01
7.770000000000000240e-01,-4.150050068079891297e-02,2.497078330765047371e-01,-1.872053975337814313e-01
7.780000000000000249e-01,-1.252716129299986242e-02,2.475352315979081619e-01,-1.881997528959783728e-01
7.790000000000000258e-01,2.270373176803332921e-02,2.419015760841001506e-01,-1.890417543205975826e-01
7.800000000000000266e-01,7.560228855626888178e-02,2.577146451528564697e-01,-1.757282403507777480e-01
7.810000000000000275e-01,1.125423568845907163e-01,2.623098456807633205e-01,-1.760625364078650112e-01
7.820000000000000284e-01,1.478789782069619696e-01,2.654916036864463091e-01,-1.631848948916760911e-01
7.830000000000000293e-01,1.826882781732465377e-01,2.528926396622444561e-01,-1.495423955464505184e-01
7.840000000000000302e-01,2.188016964756783755e-01,2.515801230976980052e-01,-1.192506688596624426e-01
7.850000000000000311e-01,2.264523451092276263e-01,2.056468322890325495e-01,-1.251779966209519424e-01
7.860000000000000320e-01,2.497040484254147985e-01,2.060120474511729083e-01,-9.858884226796013617e-02
7.870000000000000329e-01,3.014838935899708527e-01,1.779250041789847137e-01,-6.526935366969947860e-02
7.880000000000000338e-01,2.930839414682462896e-01,1.560539531820025472e-01,-5.388571893955557135e-02
7.890000000000000346e-01,3.127311580435525040e-01,1.291012891442829824e-01,-2.356279281999429376e-02
7.900000000000000355e-01,3.317113516487039671e-01,1.110306755668945128e-01,-2.623262002091976235e-03
7.910000000000000364e-01,3.327108847003847347e-01,9.293710380075022315e-02,2.058156638333007854e-02
7.920000000000000373e-01,3.247511462011242744e-01,4.584091424435611517e-02,3.125537437021076032e-02
7.930000000000000382e-01,3.192047476622507096e-01,4.929457835932402228e-03,5.650903628352220431e-02
7.940000000000000391e-01,3.164424184914987337e-01,-1.736387366711467442e-02,8.383067268837234021e-02
7.950000000000000400e-01,3.124874581131976137e-01,-2.822435719706890139e-02,1.098148758170540973e-01
7.960000000000000409e-01,2.888844448008517918e-01,-7.128281143793759045e-02,1.255090648050656010e-01
7.970000000000000417e-01,2.614587357413717950e-01,-1.029575610154902648e-01,1.449478621610054696e-01
7.980000000000000426e-01,2.379147627780898444e-01,-1.229794058640036603e-01,1.573243736972496365e-01
7.990000000000000435e-01,2.169400467416310874e-01,-1.530925220085749550e-01,1.640553479484087307e-01
8.000000000000000444e-01,1.953066627399410449e-01,-1.865196292350661256e-01,1.702365891533570430e-01
8.010000000000000453e-01,1.611024188773002019e-01,-2.076138644491797858e-01,1.800097533695267371e-01
8.020000000000000462e-01,1.174321406746904189e-01,-2.239939562430255104e-01,1.847586816649779695e-01
8.030000000000000471e-01,1.000593532185583279e-01,-2.211058515537337177e-01,1.855962348754985336e-01
8.040000000000000480e-01,5.816583794905331312e-02,-2.383106088859156535e-01,2.051916693840327155e-01
8.050000000000000488e-01,1.614413901695146286e-02,-2.569845981520256784e-01,2.086891188156487775e-01
8.060000000000000497e-01,-2.181521333427562451e-02,-2.683485995719608330e-01,1.818578189819884672e-01
8.070000000000000506e-01,-7.029011873325476112e-02,-2.593851999377360107e-01,1.750839594640258845e-01
8.080000000000000515e-01,-1.128557670493396947e-01,-2.649215456504871447e-01,1.784415498030771374e-01
8.090000000000000524e-01,-1.283634634928099705e-01,-2.705917121333905606e-01,1.501398342493028837e-01
8.100000000000000533e-01,-1.697952553523412456e-01,-2.382070772839241235e-01,1.690067728560716853e-01
8.110000000000000542e-01,-1.911842943654208371e-01,-2.404025421963562059e-01,1.550317029016839154e-01
8.120000000000000551e-01,-2.366553972112561410e-01,-2.242583448047915651e-01,1.153577871194262361e-01
8.129999999999999449e-01,-2.606997979440780489e-01,-1.825840541793520289e-01,9.604664721543776373e-02
8.139999999999999458e-01,-2.537301132282207550e-01,-1.749375667866029660e-01,6.814711216618164757e-02
8.149999999999999467e-01,-3.037506853047687860e-01,-1.522198285102029647e-01,4.666730399494060932e-02
8.159999999999999476e-01,-3.086266330284150317e-01,-1.375638218935258672e-01,3.328671353386281756e-02
8.169999999999999485e-01,-3.150317960826938268e-01,-9.581446229473222775e-02,5.299316150534047129e-03
8.179999999999999494e-01,-3.175950312691777633e-01,-7.992130175544617798e-02,-4.709150931332024143e-03
8.189999999999999503e-01,-3.297463291023075005e-01,-6.564327658945168231e-02,-1.528064721246775830e-02
8.199999999999999512e-01,-3.427056146195741060e-01,-4.603324172909892785e-03,-5.923583771584430002e-02
8.209999999999999520e-01,-3.382863134756013412e-01,6.362052564509175501e-03,-6.222415885262416041e-02
8.219999999999999529e-01,-3.145912964848092130e-01,6.935727266974703320e-02,-1.076274707728195335e-01
8.229999999999999538e-01,-2.887551593078562240e-01,7.888533457325086484e-02,-1.199461525916453580e-01
8.239999999999999547e-01,-2.964136027610067559e-01,7.997919123039262668e-02,-1.265589281119434140e-01
8.249999999999999556e-01,-2.572370048330410719e-01,1.216127279516918264e-01,-1.519280603916784989e-01
8.259999999999999565e-01,-2.183521058324322250e-01,1.582499126966498137e-01,-1.621369597487461733e-01
8.269999999999999574e-01,-2.040254552643501751e-01,1.912557231082947784e-01,-1.863965031550383900e-01
8.279999999999999583e-01,-1.610211956912037667e-01,2.141066689556097857e-01,-1.947467730805600983e-01
8.289999999999999591e-01,-1.152147261502916437e-01,2.229351223706174945e-01,-2.005164316356989884e-01
8.299999999999999600e-01,-1.064617650505759738e-01,2.433835193846425882e-01,-1.932700162552469236e-01
8.309999999999999609e-01,-7.206651357953179626e-02,2.272303153101036532e-01,-1.974768097000614564e-01
8.319999999999999618e-01,-2.685851273200228623e-02,2.645018999039809304e-01,-2.015524011531610316e-01
8.329999999999999627e-01,8.954856470132067578e-03,2.698866253844860452e-01,-1.920951745970695679e-01
8.339999999999999636e-01,6.745802701721725914e-02,2.499612602090474645e-01,-1.836576012628927390e-01
8.349999999999999645e-01,9.705485346633931087e-02,2.814599313041047379e-01,-1.946620262672321688e-01
8.359999999999999654e-01,1.264143616580732654e-01,2.630814643246090490e-01,-1.810154253139328595e-01
8.369999999999999662e-01,1.512615293160943231e-01,2.468996113267706294e-01,-1.643505254101674806e-01
8.379999999999999671e-01,1.988294930370081426e-01,2.367598061128741993e-01,-1.437355014644088325e-01
8.389999999999999680e-01,2.236612055084053197e-01,2.433915539303894149e-01,-1.135410088014503077e-01
8.399999999999999689e-01,2.404293925102981011e-01,2.066299299649009269e-01,-1.002087507266489069e-01
8.409999999999999698e-01,2.630359163938271738e-01,1.860524597923629286e-01,-7.107791022122289526e-02
8.419999999999999707e-01,2.921015675960273450e-01,1.445760014896114165e-01,-6.845786751074611765e-02
8.429999999999999716e-01,3.120114452514704539e-01,1.156714464516144097e-01,-4.708967846908062443e-02
8.439999999999999725e-01,3.104276908536315327e-01,1.071002265073418835e-01,-2.544586517978737056e-02
8.449999999999999734e-01,3.249921149266994380e-01,7.991518220208976286e-02,7.555242166139251869e-03
8.459999999999999742e-01,3.365849948683650172e-01,3.895743420753655650e-02,1.842439211970646473e-02
8.469999999999999751e-01,3.261485038736964270e-01,1.003493672694967184e-02,4.630289549934401422e-02
8.479999999999999760e-01,3.280092366030706863e-01,-1.192274285982393954e-02,6.234086974931250802e-02
8.489999999999999769e-01,3.098656933676088854e-01,-2.823435836230931903e-02,9.736868182352036161e-02
8.499999999999999778e-01,2.973911708720514691e-01,-6.947892566539273784e-02,1.000450402601787969e-01
8.509999999999999787e-01,2.856386432435943368e-01,-9.667863994833683638e-02,1.274931348310357759e-01
8.519999999999999796e-01,2.492939376981782584e-01,-1.418848182784956946e-01,1.428960471298665602e-01
8.529999999999999805e-01,2.285814987996490910e-01,-1.578771807543758732e-01,1.409022693687066730e-01
8.539999999999999813e-01,2.084330484721041432e-01,-1.787059292033367219e-01,1.704066682500029184e-01
8.549999999999999822e-01,1.778272287131715812e-01,-2.206618067770999558e-01,1.925132312367553999e-01
8.559999999999999831e-01,1.394296336258537827e-01,-2.214353476749312821e-01,1.924791387595491676e-01
8.569999999999999840e-01,1.139925985833493138e-01,-2.460034018679411738e-01,1.880412929476293626e-01
8.579999999999999849e-01,8.012969063787477031e-02,-2.381094857652431285e-01,2.094553337418931238e-01
8.589999999999999858e-01,2.964543405788305080e-02,-2.669223413088829822e-01,2.077802730898450911e-01
8.599999999999999867e-01,-1.408165581346796681e-02,-2.539877152656744852e-01,1.951546741420328024e-01
8.609999999999999876e-01,-5.185980088093121443e-02,-2.481836441225791223e-01,2.032948135521086830e-01
8.619999999999999885e-01,-8.315215362930815368e-02,-2.652707852548656375e-01,1.701139641385559231e-01
8.629999999999999893e-01,-1.284299651570681988e-01,-2.497364341099433116e-01,1.668049120959235188e-01
8.639999999999999902e-01,-1.501169159881407533e-01,-2.643569867776702775e-01,1.554596265098070473e-01
8.649999999999999911e-01,-1.860217638581606603e-01,-2.322015037144247451e-01,1.586418649863261254e-01
8.659999999999999920e-01,-2.245257176575476132e-01,-2.314628183149345653e-01,1.417170907025644688e-01
8.669999999999999929e-01,-2.446249781218414188e-01,-1.877312246035360010e-01,1.145333951685648943e-01
8.679999999999999938e-01,-2.835130584098921047e-01,-1.664617713655767994e-01,1.011703576979124941e-01
8.689999999999999947e-01,-3.004508431146253877e-01,-1.659646031965989199e-01,7.378475516610448481e-02
8.699999999999999956e-01,-2.922967262334067451e-01,-1.292602559867153944e-01,5.578584975030739107e-02
8.709999999999999964e-01,-3.302084383836708104e-01,-1.146429579922204067e-01,1.993889520740765864e-02
8.719999999999999973e-01,-3.245116559566950665e-01,-7.199643325881595335e-02,3.277113674260253001e-03
8.729999999999999982e-01,-3.295219745769590869e-01,-4.738843817839587247e-02,-4.829599132360774642e-03
8.739999999999999991e-01,-3.384942130886263167e-01,-1.980207330529607651e-02,-2.915369980933794208e-02
8.750000000000000000e-01,-3.233126863806164430e-01,4.868104532606643518e-03,-7.269253962876714992e-02
8.760000000000000009e-01,-3.124327421459149878e-01,4.133333065954804958e-02,-6.591284273898442847e-02
8.770000000000000018e-01,-3.162759613156321814e-01,7.957377923113813367e-02,-7.934374211147932066e-02
8.780000000000000027e-01,-2.809471237470146932e-01,1.001851305068533621e-01,-1.339172834795226696e-01
8.790000000000000036e-01,-2.585051821966949381e-01,1.303468586834065357e-01,-1.204555856347833132e-01
8.800000000000000044e-01,-2.399190274222001151e-01,1.681977193390563063e-01,-1.653010325993204965e-01
8.810000000000000053e-01,-2.214045775693312679e-01,1.669416092974906896e-01,-1.803561453943991200e-01
8.820000000000000062e-01,-1.790619618404817315e-01,2.103955094737105513e-01,-1.773354937056180747e-01
8.830000000000000071e-01,-1.694792533075785701e-01,2.123586275028841730e-01,-1.698492361009125984e-01
8.840000000000000080e-01,-1.078668658937888131e-01,2.407526525038592713e-01,-1.940186455137248578e-01
8.850000000000000089e-01,-7.322064011023038388e-02,2.391911803403681258e-01,-1.998816401992699332e-01
8.860000000000000098e-01,-4.823303103229485689e-02,2.484997241836525705e-01,-1.993875844909429595e-01
8.870000000000000107e-01,-6.986198704882814331e-03,2.469841885110140578e-01,-1.983111935996810238e-01
8.880000000000000115e-01,3.325302576386339470e-02,2.599356759886549129e-01,-1.964623868242124927e-01
8.890000000000000124e-01,8.027895465163306654e-02,2.571920093303624033e-01,-1.915792825889766626e-01
8.900000000000000133e-01,1.171229196747745893e-01,2.647190045411934589e-01,-1.800258682561703683e-01
8.910000000000000142e-01,1.365705832957671284e-01,2.403806143889324898e-01,-1.751183442087413111e-01
8.920000000000000151e-01,1.779710744100475861e-01,2.211407731980800928e-01,-1.571021770498184922e-01
8.930000000000000160e-01,2.033012288608625207e-01,2.266890415798588909e-01,-1.390644012982863720e-01
8.940000000000000169e-01,2.437298321395046374e-01,2.076178027883046617e-01,-1.207534562800297306e-01
8.950000000000000178e-01,2.586148624774906035e-01,1.738079711740545819e-01,-9.670178242567384341e-02
8.960000000000000187e-01,2.691804816196783912e-01,1.411617541787127950e-01,-9.200794800045936084e-02
8.970000000000000195e-01,3.020124794984755390e-01,1.412384142332549497e-01,-6.352686350224220901e-02
8.980000000000000204e-01,3.060260085551148035e-01,1.054489383175454126e-01,-4.248077149896944960e-02
8.990000000000000213e-01,3.320966456293713009e-01,9.789566094821354481e-02,-3.026957379909615484e-02
9.000000000000000222e-01,3.328371497320614103e-01,4.319310614268076498e-02,-1.960384478448387591e-03
9.010000000000000231e-01,3.404715776397314597e-01,1.671094803630968767e-02,2.577707421636001375e-02
9.020000000000000240e-01,3.163381651826687180e-01,-1.732778730747775234e-02,3.058953144819678144e-02
9.030000000000000249e-01,3.185125361762159990e-01,-6.983943351238497410e-02,6.574887102282797602e-02
9.040000000000000258e-01,3.089422058478825672e-01,-6.956969461218584505e-02,9.068742802740011044e-02
9.050000000000000266e-01,2.809416741278981111e-01,-9.918328651012252306e-02,9.338404163886085407e-02
9.060000000000000275e-01,2.854800130682662584e-01,-1.388940887902572197e-01,1.105896904270058656e-01
9.070000000000000284e-01,2.576495765913878189e-01,-1.478921725019598232e-01,1.558947081521652456e-01
9.080000000000000293e-01,2.320963987013694163e-01,-1.777632501220762773e-01,1.511857947063714736e-01
9.090000000000000302e-01,1.980074965018285005e-01,-1.987219712300608565e-01,1.826978241670927650e-01
9.100000000000000311e-01,1.445820768719941196e-01,-2.019352668718019939e-01,1.854763816932340770e-01
9.110000000000000320e-01,1.231427330430254347e-01,-2.325021104666880611e-01,1.780600310292545230e-01
9.120000000000000329e-01,8.698228146516534531e-02,-2.453844543842097492e-01,1.956058391488306458e-01
9.130000000000000338e-01,2.968758102139377325e-02,-2.688017261785452527e-01,1.964424481940844902e-01
9.140000000000000346e-01,1.028779198013953303e-02,-2.578641730864679182e-01,1.799652630121063579e-01
9.150000000000000355e-01,-2.677188526980783106e-02,-2.473817297085807443e-01,1.958337380301524433e-01
9.160000000000000364e-01,-6.103930232673941692e-02,-2.857680347103795926e-01,1.826200617919753189e-01
9.170000000000000373e-01,-1.016825460578517776e-01,-2.718576582440765388e-01,1.880897662807276827e-01
9.180000000000000382e-01,-1.322726891665030879e-01,-2.351378444128165990e-01,1.770591196197770778e-01
9.190000000000000391e-01,-1.641354391705115989e-01,-2.274264534953263084e-01,1.660904129117506955e-01
9.200000000000000400e-01,-1.960680926489582199e-01,-2.111766110533630503e-01,1.476080219500082169e-01
9.210000000000000409e-01,-2.248112984768708134e-01,-1.998178810164497887e-01,1.311117951897665390e-01
9.220000000000000417e-01,-2.440339653604340908e-01,-1.830881913840865238e-01,1.117046711034651585e-01
9.230000000000000426e-01,-2.629267298215421378e-01,-1.618722221541371853e-01,1.100417003791082649e-01
9.240000000000000435e-01,-2.886338319016230058e-01,-1.288767072613940801e-01,6.104828185470159013e-02
9.250000000000000444e-01,-2.906647128132397451e-01,-1.127799627935995447e-01,5.640998563684097855e-02
9.260000000000000453e-01,-3.329226121171961483e-01,-5.345425875074862748e-02,3.630759410135725451e-02
9.270000000000000462e-01,-3.315032786124638142e-01,-5.850160973711005657e-02,2.668802971927652229e-02
9.280000000000000471e-01,-3.390748266225864782e-01,-1.540173295704118546e-02,2.214779267559226997e-03
9.290000000000000480e-01,-3.173119406999149739e-01,1.477297478676602160e-02,-5.542816853959942752e-02
9.300000000000000488e-01,-3.193163509742275585e-01,5.732817671779289609e-02,-4.333403589472775708e-02
9.310000000000000497e-01,-3.069812000526608298e-01,8.026887367601946710e-02,-8.377444585786192333e-02
9.320000000000000506e-01,-2.916323767313689364e-01,1.143647033006522790e-01,-9.237763292370008983e-02
9.330000000000000515e-01,-2.840033469177121739e-01,1.370777447795272219e-01,-1.461631321893473445e-01
9.340000000000000524e-01,-2.687938808877604613e-01,1.773181816221725271e-01,-1.442676499580861083e-01
9.350000000000000533e-01,-2.352673035473838437e-01,1.752721259863674053e-01,-1.646985241983407455e-01
9.360000000000000542e-01,-2.100695146718937478e-01,2.213069710477680307e-01,-1.695986929145657796e-01
9.370000000000000551e-01,-1.513575913296783815e-01,2.184436237476840015e-01,-1.723746812093518710e-01
9.379999999999999449e-01,-1.475452046712108778e-01,2.200852949526725111e-01,-1.956840194220257900e-01
9.389999999999999458e-01,-1.095955964063369814e-01,2.455378086145707239e-01,-1.850182050408258339e-01
9.399999999999999467e-01,-6.172367599808641081e-02,2.629405184909039406e-01,-1.942586353608704297e-01
9.409999999999999476e-01,-1.310183886712827477e-02,2.546947832510116916e-01,-2.188718713930228321e-01
9.419999999999999485e-01,1.032524619575250942e-02,2.711981833855460766e-01,-1.885951766631023541e-01
9.429999999999999494e-01,5.544547403266829322e-02,2.754624810706173821e-01,-2.061876488718754896e-01
9.439999999999999503e-01,8.553397578889418429e-02,2.696179754367050152e-01,-1.880185735955923476e-01
9.449999999999999512e-01,1.218636467722719469e-01,2.377242969602633149e-01,-1.746552348679736022e-01
9.459999999999999520e-01,1.746310127149681701e-01,2.282208381136710817e-01,-1.670213258653569233e-01
9.469999999999999529e-01,1.923308947302902194e-01,2.352442169780403214e-01,-1.683399201141062285e-01
9.479999999999999538e-01,2.249811519515557134e-01,1.950545214416518347e-01,-1.303201577684545698e-01
9.489999999999999547e-01,2.586498960284863147e-01,1.994316369896602936e-01,-1.292500990463853472e-01
9.499999999999999556e-01,2.770940568557926920e-01,1.680820237997775468e-01,-9.474238289837942639e-02
9.509999999999999565e-01,2.943981867462620028e-01,1.334052483552488622e-01,-9.959302316371841657e-02
9.519999999999999574e-01,3.031405087157381106e-01,9.713439979345966924e-02,-6.249856184362963252e-02
9.529999999999999583e-01,3.341230671666405860e-01,6.020168897104161837e-02,-5.769654156180099858e-02
9.539999999999999591e-01,3.135905999495894325e-01,4.704867724344050789e-02,-1.713093601249082026e-02
9.549999999999999600e-01,3.327286979387634736e-01,1.908015018749171718e-02,1.856409312344843576e-02
9.559999999999999609e-01,3.271461382616939195e-01,-3.307747953886505665e-02,1.920119459001904880e-02
9.569999999999999618e-01,3.264261777892608074e-01,-6.029215897405622304e-02,5.195188880965653094e-02
9.579999999999999627e-01,3.195515392218051809e-01,-6.959314219115939060e-02,8.166896600039011411e-02
9.589999999999999636e-01,3.036848294782318880e-01,-9.317725550446542826e-02,9.330906806590999469e-02
9.599999999999999645e-01,2.880982652548765288e-01,-1.441336703646830530e-01,1.093326321630023190e-01
9.609999999999999654e-01,2.618397458814323286e-01,-1.493530103406734144e-01,1.292786630441218332e-01
9.619999999999999662e-01,2.313882393132266901e-01,-1.832930941807205394e-01,1.342086262877752456e-01
9.629999999999999671e-01,1.955464990263618141e-01,-2.085044513664055799e-01,1.628825121885648097e-01
9.639999999999999680e-01,1.878859553765024337e-01,-2.317022484210327637e-01,1.605733100040116490e-01
9.649999999999999689e-01,1.489938341330998839e-01,-2.204541284607976492e-01,1.740481054247620951e-01
9.659999999999999698e-01,9.908343802350802476e-02,-2.509067520107450266e-01,2.057126610185414095e-01
9.669999999999999707e-01,6.645377301728151720e-02,-2.467514993853217320e-01,1.846785307620174288e-01
9.679999999999999716e-01,3.437697048531573180e-02,-2.669899816538348625e-01,1.825269970574635303e-01
9.689999999999999725e-01,-1.847707640930767959e-03,-2.716174793382441499e-01,1.998932968521984488e-01
9.699999999999999734e-01,-3.817451767012802061e-02,-2.626495753383082388e-01,1.903797751732054233e-01
9.709999999999999742e-01,-6.833738087392582372e-02,-2.679302313711968142e-01,1.672075515177174621e-01
9.719999999999999751e-01,-1.186349626791988882e-01,-2.340679530528573804e-01,1.625038098932315989e-01
9.729999999999999760e-01,-1.409274583832527405e-01,-2.221303248236423389e-01,1.701815617318257756e-01
9.739999999999999769e-01,-1.905145185839495769e-01,-2.063746379418154864e-01,1.657574153378252313e-01
9.749999999999999778e-01,-2.152775831504789017e-01,-1.989721984600607563e-01,1.554187755275857619e-01
9.759999999999999787e-01,-2.428270894966052806e-01,-1.871393901666328907e-01,1.209926373284767182e-01
9.769999999999999796e-01,-2.658548578359790637e-01,-1.414261901070348049e-01,1.250164903805476846e-01
9.779999999999999805e-01,-2.808788017397821912e-01,-1.146528642232655520e-01,1.027696116541976790e-01
9.789999999999999813e-01,-3.000963013213970298e-01,-9.122273782399420439e-02,8.589145573467074635e-02
9.799999999999999822e-01,-3.212104849531283723e-01,-6.695879240740709726e-02,7.462952272759545980e-02
9.809999999999999831e-01,-3.215408791271575084e-01,-5.916511384519752836e-02,2.443592169100845118e-02
9.819999999999999840e-01,-3.511288746692690088e-01,-7.263346896308297933e-03,1.152837724374685714e-02
9.829999999999999849e-01,-3.219604255747216537e-01,1.979362405151109325e-02,-1.438696565590266187e-02
9.839999999999999858e-01,-3.021356202156283421e-01,4.921395227426574037e-02,-2.185071613331237769e-02
9.849999999999999867e-01,-3.116018173729021012e-01,6.620781020656739402e-02,-4.357531983519845331e-02
9.859999999999999876e-01,-3.095992971838725794e-01,1.146507062294972873e-01,-6.397123752982215861e-02
9.869999999999999885e-01,-2.678427712698059904e-01,1.271654019438886729e-01,-9.341603051501083665e-02
9.879999999999999893e-01,-2.859686710594371295e-01,1.577590920342454850e-01,-1.053788106317710416e-01
9.889999999999999902e-01,-2.362330074319718698e-01,1.954456627182792061e-01,-1.328378042223556932e-01
9.899999999999999911e-01,-2.122321647914998666e-01,2.124894873234747239e-01,-1.428839689857206718e-01
9.909999999999999920e-01,-1.811477285859318109e-01,2.324642950624196402e-01,-1.504428762374299955e-01
9.919999999999999929e-01,-1.600419398366038082e-01,2.237989930883125811e-01,-1.806659530031753946e-01
9.929999999999999938e-01,-1.405660573583233097e-01,2.601508249335693912e-01,-1.723308753351551481e-01
9.939999999999999947e-01,-9.302046009232189938e-02,2.585826901826971391e-01,-1.939374315688354444e-01
9.949999999999999956e-01,-5.060202430647600669e-02,2.518068650770138306e-01,-1.759408027459252455e-01
9.959999999999999964e-01,-2.336768968840288729e-03,2.710566354256234156e-01,-1.986427048011170926e-01
9.969999999999999973e-01,2.321765566827523053e-02,2.570135293580970148e-01,-1.917575183546960937e-01
9.979999999999999982e-01,9.091662773082992421e-02,2.428232905952210641e-01,-2.057281214758920895e-01
9.989999999999999991e-01,1.116642607914138108e-01,2.504970770931068125e-01,-1.841712338622308320e-01
1.000000000000000000e+00,1.343017516254041976e-01,2.323087516190362189e-01,-1.761959439134988814e-01
1.000999999999999890e+00,1.711101331663177905e-01,2.239762178589560226e-01,-1.703495059659313471e-01
1.002000000000000002e+00,2.042563441730173013e-01,1.914881525401141982e-01,-1.502214182113046359e-01
1.002999999999999892e+00,2.302643553980338598e-01,1.693980160363765253e-01,-1.368051760139711304e-01
1.004000000000000004e+00,2.609340934001348478e-01,1.450713071407959964e-01,-1.493669761750058000e-01
1.004999999999999893e+00,2.751635260646768111e-01,1.255641224452142823e-01,-1.260286356294285648e-01
1.006000000000000005e+00,2.946532606613441740e-01,8.169719188370246077e-02,-8.006130622530140128e-02
1.006999999999999895e+00,3.060164274164390297e-01,7.271355741304537379e-02,-9.272534582165646577e-02
1.008000000000000007e+00,3.178498557027585325e-01,3.900787370791765352e-02,-4.770245754294200752e-02
1.008999999999999897e+00,3.339280732099036419e-01,7.199043639396779035e-03,-3.022632790858903809e-02
1.010000000000000009e+00,3.170991500695493071e-01,-2.523558653161099910e-02,7.548980781785217566e-03
1.010999999999999899e+00,3.442673492076972486e-01,-3.757206348124415840e-02,2.339850773174096538e-02
1.012000000000000011e+00,3.069408139306917804e-01,-8.905692269987156018e-02,5.656653994969332994e-02
1.012999999999999901e+00,3.080905437155128102e-01,-1.078815574054109161e-01,5.676137077534419706e-02
1.014000000000000012e+00,3.029865193239864585e-01,-1.498364541797299054e-01,9.481669086711386196e-02
1.014999999999999902e+00,2.741535250276435631e-01,-1.638542731956659226e-01,1.032869715391141197e-01
1.016000000000000014e+00,2.401937184890552135e-01,-1.822164659896921279e-01,1.430351426861798669e-01
1.016999999999999904e+00,2.337090360693487301e-01,-2.120857720356049136e-01,1.501557149415219672e-01
1.018000000000000016e+00,1.817928561559375988e-01,-2.298699983251016321e-01,1.568958772517732025e-01
1.018999999999999906e+00,1.637404054013427146e-01,-2.312727622788748327e-01,1.779412373071115328e-01
1.020000000000000018e+00,1.056469467653233102e-01,-2.437176642194487375e-01,1.855312893517339634e-01
1.020999999999999908e+00,9.476927945336088843e-02,-2.532204345556520186e-01,1.822654860186871673e-01
1.022000000000000020e+00,4.943142407087851298e-02,-2.562940990463353219e-01,1.994680154900619062e-01
1.022999999999999909e+00,1.036596307971335371e-03,-2.633257203225889409e-01,2.034506158624529992e-01
1.024000000000000021e+00,-3.117660425543384781e-02,-2.438301412032957971e-01,1.988075048197430750e-01
1.024999999999999911e+00,-5.324620006686182211e-02,-2.477855671675089910e-01,1.856406893472096475e-01
1.026000000000000023e+00,-8.969993165283478287e-02,-2.453866783815712160e-01,2.018118570127536149e-01
1.026999999999999913e+00,-1.236960036696323761e-01,-2.256084176064259705e-01,1.847263116336513300e-01
1.028000000000000025e+00,-1.789077242761536457e-01,-1.936528544040255484e-01,1.848093809259180875e-01
1.028999999999999915e+00,-1.984970105206077806e-01,-1.977356313645993180e-01,1.795103725591121746e-01
1.030000000000000027e+00,-2.391059262671462737e-01,-1.667257961674813160e-01,1.551831060454338107e-01
1.030999999999999917e+00,-2.709762482192606403e-01,-1.461277326449775815e-01,1.440128451254358843e-01
1.032000000000000028e+00,-2.903821675728727181e-01,-1.113890560297297744e-01,1.285198841997942654e-01
1.032999999999999918e+00,-3.024465516247801244e-01,-9.645728847960713392e-02,1.062031099436874515e-01
1.034000000000000030e+00,-2.996133981852647787e-01,-7.958011877762184716e-02,7.463161730863450416e-02
1.034999999999999920e+00,-3.386436405787556780e-01,-1.559425010953055003e-02,6.291162835178963630e-02
1.036000000000000032e+00,-3.219631486087800032e-01,-4.467255538014378545e-03,1.838344231925869918e-02
1.036999999999999922e+00,-3.147839140346722075e-01,3.648984806803570735e-02,1.686513216793763051e-02
1.038000000000000034e+00,-3.079793183580023519e-01,4.959553583284583705e-02,3.501982653479029841e-03
1.038999999999999924e+00,-3.392554738788711721e-01,8.764169776584795901e-02,-2.168128928485196089e-02
1.040000000000000036e+00,-2.937422625163247369e-01,1.056329437112781960e-01,-6.635230834860478266e-02
1.040999999999999925e+00,-2.795002139197803603e-01,1.270481683443281107e-01,-8.486710757256547832e-02
1.042000000000000037e+00,-2.581172676682048639e-01,1.598529580904304581e-01,-8.970998810217949149e-02
1.042999999999999927e+00,-2.433976395488031408e-01,1.750557526394549146e-01,-1.048459561473611273e-01
1.044000000000000039e+00,-2.348758906149789050e-01,2.064437666944188565e-01,-1.277557695391088044e-01
1.044999999999999929e+00,-2.147540966586972411e-01,2.234577574998296845e-01,-1.398258705742844998e-01
1.046000000000000041e+00,-1.686210671890570056e-01,2.400452874337057618e-01,-1.658677607427572753e-01
1.046999999999999931e+00,-1.281081166541592764e-01,2.392754732792786165e-01,-1.815109411923974680e-01
1.048000000000000043e+00,-1.149996202204713464e-01,2.658908243697928886e-01,-1.892490253921629284e-01
1.048999999999999932e+00,-7.373688278795587081e-02,2.736701138732536842e-01,-2.001065572380718305e-01
1.050000000000000044e+00,-1.214918218817952894e-02,2.682599134955430675e-01,-1.813652083351402211e-01
1.050999999999999934e+00,2.838638942841791371e-02,2.682145468704377200e-01,-2.125342318641860462e-01
1.052000000000000046e+00,6.585807685410292878e-02,2.416573012445547841e-01,-1.981073801611015206e-01
1.052999999999999936e+00,9.259315001836783410e-02,2.506574821707777123e-01,-1.988304201015215489e-01
1.054000000000000048e+00,1.195943757740377950e-01,2.296860888593534600e-01,-1.890429111650690497e-01
1.054999999999999938e+00,1.672877325773926005e-01,2.177750931917640242e-01,-1.689937160101172564e-01
1.056000000000000050e+00,1.778670147942038038e-01,2.063892153166447807e-01,-1.655679366732692170e-01
1.056999999999999940e+00,2.285288769954930410e-01,1.757601191296161991e-01,-1.428945610177198289e-01
1.058000000000000052e+00,2.470978118818864810e-01,1.600943743088469040e-01,-1.557902734672701184e-01
1.058999999999999941e+00,2.747269488564862416e-01,1.351400745702017459e-01,-1.332260530444240310e-01
1.060000000000000053e+00,2.762495119130328192e-01,9.447255626852467392e-02,-1.060805429876626599e-01
1.060999999999999943e+00,3.085300124404778410e-01,7.026017670005824112e-02,-1.169577435638374657e-01
1.062000000000000055e+00,3.230187794615477781e-01,4.057821271356696485e-02,-7.696642494336460028e-02
1.062999999999999945e+00,3.329395998244756849e-01,4.410108828530431152e-03,-4.319763090026144253e-02
1.064000000000000057e+00,3.261362014696246314e-01,-2.732848597005221175e-02,-3.669256159942806822e-02
1.064999999999999947e+00,3.369586009509123459e-01,-5.388668177849757768e-02,9.797070932926242939e-03
1.066000000000000059e+00,3.319786038455356803e-01,-8.685480533647120527e-02,-4.041276518466025217e-03
1.066999999999999948e+00,2.934407745212730401e-01,-9.069424552047369859e-02,3.217450919620590960e-02
1.068000000000000060e+00,2.882905691932737824e-01,-1.510521661593286213e-01,7.316139101770199882e-02
1.068999999999999950e+00,2.858271976637347112e-01,-1.698656284197327948e-01,8.022530324567760107e-02
1.070000000000000062e+00,2.508640528607838927e-01,-1.959013366520880595e-01,8.891981902892527601e-02
1.070999999999999952e+00,2.524543456792506801e-01,-2.082714261158706837e-01,1.034588426672761463e-01
1.072000000000000064e+00,2.160396283758842517e-01,-2.304950953838569572e-01,1.365911335475130106e-01
1.072999999999999954e+00,1.630710703655018634e-01,-2.433304144972061600e-01,1.590425535401815693e-01
1.074000000000000066e+00,1.309263091638159793e-01,-2.537560972007158466e-01,1.819792821272445127e-01
1.074999999999999956e+00,1.143088613500431311e-01,-2.639900036302436637e-01,1.763685281813579531e-01
1.076000000000000068e+00,6.935723447542330167e-02,-2.584243441630560412e-01,2.011501002509992475e-01
1.076999999999999957e+00,3.167580110063087512e-02,-2.672224635856575992e-01,1.818849955342921598e-01
1.078000000000000069e+00,-1.222485021966424274e-03,-2.544644193055981551e-01,1.857167680582085256e-01
1.078999999999999959e+00,-4.288891257403704832e-02,-2.603624016686128528e-01,2.047833433093608213e-01
1.080000000000000071e+00,-9.038977453995790390e-02,-2.288024260367078344e-01,1.944664251125798882e-01
1.080999999999999961e+00,-1.188392583873123381e-01,-2.321572065675969743e-01,2.052531429730527768e-01
1.082000000000000073e+00,-1.348144101701611586e-01,-2.176231512379691035e-01,1.811398499406445817e-01
1.082999999999999963e+00,-1.855292872566506324e-01,-1.968293950145505178e-01,1.795815395283088811e-01
1.084000000000000075e+00,-2.306894684438674237e-01,-1.786900668571509976e-01,1.631211288493867873e-01
1.084999999999999964e+00,-2.404127829422390283e-01,-1.584177308418109331e-01,1.441557200163137153e-01
1.086000000000000076e+00,-2.807637977807968532e-01,-1.291012368242534791e-01,1.379192067060992510e-01
1.086999999999999966e+00,-2.943926826408124753e-01,-1.031330561402878238e-01,1.141102202106018260e-01
1.088000000000000078e+00,-2.934300449067633876e-01,-8.865256912961477775e-02,9.210080641601946227e-02
1.088999999999999968e+00,-3.250629767914251511e-01,-3.244052066139381518e-02,6.995706272579288454e-02
1.090000000000000080e+00,-3.029206474179865216e-01,1.821680958536817455e-02,7.315554596435021317e-02
1.090999999999999970e+00,-3.417837512863676763e-01,3.569509686939129761e-02,4.767280271399093605e-02
1.092000000000000082e+00,-3.394940944325791077e-01,5.566576959514853845e-02,9.469099511104108607e-03
1.092999999999999972e+00,-3.328757830514469385e-01,9.281325079482613538e-02,-1.485078171648651591e-03
1.094000000000000083e+00,-3.181602723032523894e-01,1.215609649478966020e-01,-2.548865171737602422e-02
1.094999999999999973e+00,-3.106631790647270686e-01,1.361861003979602802e-01,-6.548907977088358479e-02
1.096000000000000085e+00,-2.811955361693528888e-01,1.608421720187013793e-01,-8.514617332559006047e-02
1.096999999999999975e+00,-2.596557189693757262e-01,1.882001688712972576e-01,-9.948607978043581823e-02
1.098000000000000087e+00,-2.495439910788103954e-01,2.115539315963323452e-01,-1.146096403744041314e-01
1.098999999999999977e+00,-2.223411283009049388e-01,2.277983297682437125e-01,-1.478383412528535279e-01
1.100000000000000089e+00,-1.728938863085085487e-01,2.450614821533922960e-01,-1.460034980212267797e-01
1.100999999999999979e+00,-1.557325834492626349e-01,2.711638335957740065e-01,-1.815179372519420131e-01
1.102000000000000091e+00,-1.024630209436852152e-01,2.639217961770967680e-01,-1.706792002998894775e-01
1.102999999999999980e+00,-6.875035657872949346e-02,2.655927044223970745e-01,-1.818461498379447816e-01
1.104000000000000092e+00,-4.868588867346492627e-02,2.565944706943104614e-01,-1.927723202974351291e-01
1.104999999999999982e+00,-1.179368484589124813e-02,2.696405569432744342e-01,-1.926711763865024685e-01
1.106000000000000094e+00,3.124345497657286808e-02,2.581467423015880169e-01,-2.069736382906697536e-01
1.106999999999999984e+00,7.418063882088611616e-02,2.563201334562872358e-01,-1.924010991787983293e-01
1.108000000000000096e+00,1.166081749345523333e-01,2.149259644572533989e-01,-1.983988423853427496e-01
1.108999999999999986e+00,1.512114760799747049e-01,2.124083345599006301e-01,-1.813135905478595600e-01
1.110000000000000098e+00,1.570292739840289109e-01,1.956747373178986116e-01,-1.644205771929847792e-01
1.110999999999999988e+00,1.960630694523601836e-01,1.842373257856491364e-01,-1.717425779402743380e-01
1.112000000000000099e+00,2.379680213491211505e-01,1.396986960358158614e-01,-1.504928735238167115e-01
1.112999999999999989e+00,2.678930885318740462e-01,1.265583637815976270e-01,-1.419900240336536557e-01
1.114000000000000101e+00,2.655207105941321810e-01,8.881026287542802267e-02,-1.271044013427732045e-01
1.114999999999999991e+00,2.883772130189958816e-01,5.233774384992560119e-02,-1.089440057790095479e-01
1.116000000000000103e+00,3.093631934915342385e-01,3.409975741147626416e-02,-7.580928343211137954e-02
1.116999999999999993e+00,3.192529413628008017e-01,2.344438714333888993e-02,-6.181582145777552578e-02
1.118000000000000105e+00,3.205763970527544804e-01,-1.421416690111904600e-02,-5.121197240207128049e-02
1.118999999999999995e+00,3.253965444655729233e-01,-4.145682692834840033e-02,-2.401773799883555327e-02
1.120000000000000107e+00,3.185389644971292067e-01,-7.927265376238810946e-02,2.563001839932293503e-03
1.120999999999999996e+00,3.169963021397628200e-01,-1.059961236839153526e-01,3.102563623537216674e-03
1.122000000000000108e+00,2.999072743784555461e-01,-1.533695382387354755e-01,4.597336578790470196e-02
1.122999999999999998e+00,2.929712015264396840e-01,-1.653780056547731192e-01,4.892590088797336284e-02
1.124000000000000110e+00,2.827448063635126796e-01,-1.797480204185831487e-01,7.471787019483643044e-02
1.125000000000000000e+00,2.639641316733945531e-01,-2.121841042732051930e-01,8.817633037551345088e-02
1.125999999999999890e+00,2.233428373734829830e-01,-2.262284434089290031e-01,1.172408978943931951e-01
1.127000000000000002e+00,1.915785919543332994e-01,-2.540700279858110200e-01,1.410120083488460296e-01
1.127999999999999892e+00,1.492492481387294734e-01,-2.424624247357130835e-01,1.454468562385924368e-01
1.129000000000000004e+00,1.153025189855385740e-01,-2.591793501644270026e-01,1.578644828732989891e-01
1.129999999999999893e+00,8.415625560011172346e-02,-2.588301725119926955e-01,1.890709296078628976e-01
1.131000000000000005e+00,5.820319110120547590e-02,-2.609998831753932436e-01,1.832784731208018658e-01
1.131999999999999895e+00,1.362521634001454679e-02,-2.430951372003430366e-01,1.939623663301080769e-01
1.133000000000000007e+00,-6.373281969911344554e-03,-2.726870858754142923e-01,1.895484422557359439e-01
1.133999999999999897e+00,-6.744599574228918315e-02,-2.250374472857790964e-01,2.001914960005830302e-01
1.135000000000000009e+00,-1.151492482483707502e-01,-2.395672930117649091e-01,1.868965643297548496e-01
1.135999999999999899e+00,-1.045101333601791138e-01,-2.222597791581864546e-01,1.853163659882818282e-01
1.137000000000000011e+00,-1.666005017086533702e-01,-2.028851718662967596e-01,1.865252833598478599e-01
1.137999999999999901e+00,-2.069206296134209200e-01,-1.696531518496347812e-01,1.688882422619287227e-01
1.139000000000000012e+00,-2.323839136526709703e-01,-1.460305148828578148e-01,1.586983721439372830e-01
1.139999999999999902e+00,-2.587388884954719415e-01,-1.255901247652744523e-01,1.495577166443296524e-01
1.141000000000000014e+00,-2.933008753804400848e-01,-9.474654852437718044e-02,1.417930054824721176e-01
1.141999999999999904e+00,-3.039692987844897498e-01,-5.602210526475333990e-02,1.340165984227883467e-01
1.143000000000000016e+00,-3.201566270041613649e-01,-2.269425513991187027e-02,9.719070921973442523e-02
1.143999999999999906e+00,-3.169389559525477851e-01,-1.768533647441015294e-02,6.985563731956175026e-02
1.145000000000000018e+00,-3.346625502709216771e-01,2.974457191678724771e-02,5.075853806698944065e-02
1.145999999999999908e+00,-3.218510294297738383e-01,6.165592293947761565e-02,3.859442319749176870e-02
1.147000000000000020e+00,-3.315573335188218285e-01,8.552058723080060987e-02,5.670207904062545337e-03
1.147999999999999909e+00,-3.088040281838573820e-01,1.002569616947286135e-01,-2.181509584514071398e-02
1.149000000000000021e+00,-2.936948409182916775e-01,1.410507891684598392e-01,-1.881545614127503110e-02
1.149999999999999911e+00,-3.040393866677355006e-01,1.728085183279615411e-01,-4.428229741325652447e-02
1.151000000000000023e+00,-2.804634138034511892e-01,1.755012916469632644e-01,-7.195887852209872926e-02
1.151999999999999913e+00,-2.552353104776822756e-01,2.043261188649832250e-01,-9.023234198610134704e-02
1.153000000000000025e+00,-2.180962477211553230e-01,2.449258833416918246e-01,-1.192503395041006747e-01
1.153999999999999915e+00,-1.879228429104804199e-01,2.282957463598631609e-01,-1.391267878007222403e-01
1.155000000000000027e+00,-1.678849472532545073e-01,2.499338374869026491e-01,-1.589120903882809410e-01
1.155999999999999917e+00,-1.295905371706920772e-01,2.444467516266465856e-01,-1.808216592706056447e-01
1.157000000000000028e+00,-9.873299275721288126e-02,2.520681615302308165e-01,-1.569447871285530316e-01
1.157999999999999918e+00,-6.124013996873053228e-02,2.678190817879634866e-01,-1.904445215501888999e-01
1.159000000000000030e+00,-1.757065451772620371e-02,2.437292936439991731e-01,-1.935035548497205937e-01
1.159999999999999920e+00,-1.365376084054090579e-04,2.493609263925911368e-01,-1.853197006337059249e-01
1.161000000000000032e+00,3.828903489829949686e-02,2.518467035902244300e-01,-1.922010100690222933e-01
1.161999999999999922e+00,9.267134192551507166e-02,2.218090321077429150e-01,-1.853740380997741521e-01
1.163000000000000034e+00,1.290580387137977014e-01,2.116369426686756927e-01,-1.866926521070843004e-01
1.163999999999999924e+00,1.556720213220728899e-01,1.808764266400942344e-01,-1.918722901383498047e-01
1.165000000000000036e+00,1.992676312124125326e-01,1.635012500553325310e-01,-1.579685502289560894e-01
1.165999999999999925e+00,2.194459403327381763e-01,1.678046065040084689e-01,-1.731514222121111612e-01
1.167000000000000037e+00,2.486741969404310804e-01,1.057824152239809079e-01,-1.522511219247955627e-01
1.167999999999999927e+00,2.767205727335242949e-01,8.983191896325272430e-02,-1.426895446643113574e-01
1.169000000000000039e+00,2.835189615783322847e-01,3.934418407932160910e-02,-1.271261025846428805e-01
1.169999999999999929e+00,3.079713518307676812e-01,3.794146352189354393e-02,-1.162006862449466160e-01
1.171000000000000041e+00,3.352006197081599526e-01,1.790821224658259783e-02,-8.944769480595275712e-02
1.171999999999999931e+00,3.040553159437965336e-01,-1.292678034018762689e-02,-7.586689426875023456e-02
1.173000000000000043e+00,3.240929345007251827e-01,-5.572458473334595402e-02,-4.171037361689751422e-02
1.173999999999999932e+00,3.185955141572646698e-01,-8.990131539403625749e-02,-1.487299698502167651e-02
1.175000000000000044e+00,3.208949525417497672e-01,-1.212780024435012455e-01,-3.920563089779868608e-04
1.175999999999999934e+00,3.176035568809764120e-01,-1.432901135049504115e-01,1.881083026736835029e-02
1.177000000000000046e+00,2.877592704880583274e-01,-1.706319075255378626e-01,3.829011241555124734e-02
1.177999999999999936e+00,2.984227205989798404e-01,-1.945255176989059420e-01,5.108230538604898591e-02
1.179000000000000048e+00,2.809824997706270033e-01,-2.073817702569466792e-01,7.938309487181480217e-02
1.179999999999999938e+00,2.069695934937946791e-01,-2.235886110592851250e-01,9.476218285339199632e-02
